whichBlock,middleStim,leftStim,rightStim,stimNum,congruent,target,locationC,locationR,locationL,straightFace,imageSize,prac_block_loop.thisRepN,prac_block_loop.thisTrialN,prac_block_loop.thisN,prac_block_loop.thisIndex,prac_trial_loop.thisRepN,prac_trial_loop.thisTrialN,prac_trial_loop.thisN,prac_trial_loop.thisIndex,task_block_loop.thisRepN,task_block_loop.thisTrialN,task_block_loop.thisN,task_block_loop.thisIndex,task_trial_loop.thisRepN,task_trial_loop.thisTrialN,task_trial_loop.thisN,task_trial_loop.thisIndex,headerZoom1.started,zoomSetupText1.started,joinAudio.started,instructContinue10.started,key_resp_26.started,key_resp_26.keys,key_resp_26.rt,zoomSetupText2.started,meetingControls.started,instructContinue11.started,key_resp_27.started,key_resp_27.keys,key_resp_27.rt,zoomSetupText3.started,microphoneImage.started,instructContinue12.started,key_resp_28.started,key_resp_28.keys,key_resp_28.rt,zoomSetupText4.started,recordToComp.started,instructContinue13.started,greenConfirmBar.started,key_resp_29.started,key_resp_29.keys,key_resp_29.rt,zoomSetupText5.started,hideControls.started,instructContinue14.started,key_resp_30.started,key_resp_30.keys,key_resp_30.rt,prac_blockText.started,prac_reminder_text.started,prac_reminder_keyResp.started,prac_reminder_keyResp.keys,prac_reminder_keyResp.rt,initFixation_img.started,ISI,bigFace.started,cover_background_2.started,prac_centerImg.started,prac_stim_keyResp.started,prac_centerImg.stopped,cover_background_2.stopped,bigFace.stopped,prac_stim_keyResp.stopped,prac_stim_keyResp.keys,prac_stim_keyResp.rt,accuracy,prac_blockFeed_text.started,prac_pressContinue.started,prac_blockFeed_keyResp.started,prac_blockFeed_keyResp.keys,prac_blockFeed_keyResp.rt,task_blockText.started,task_blockReminders_keyResp.started,task_blockReminders_keyResp.keys,task_blockReminders_keyResp.rt,bigFace_2.started,cover_background.started,task_centerImg.started,task_fixImg.started,task1_stim_keyResp.started,task_centerImg.stopped,cover_background.stopped,bigFace_2.stopped,task_fixImg.stopped,task1_stim_keyResp.stopped,task1_stim_keyResp.keys,task1_stim_keyResp.rt,blockFeedCat,task_blockFeed_text.started,id,date,expName,psychopyVersion,frameRate,
,,,,,,,,,,,,,,,,,,,,,,,,,,,,25.082970899529755,25.082970899529755,25.082970899529755,25.082970899529755,25.082970899529755,space,0.5991058005020022,,,,,,,,,,,,,,,,,,,,,,,,,,,,,,,,,,,,,,,,,,,,,,,,,,,,,,,,,,,,,,,,,,,001,2022-11-09_14h15.41.253,mini_mfe_online,2022.2.4,60.01849774403631,
,,,,,,,,,,,,,,,,,,,,,,,,,,,,,,,,,,,25.713974599726498,25.713974599726498,25.713974599726498,25.713974599726498,space,0.2373400004580617,,,,,,,,,,,,,,,,,,,,,,,,,,,,,,,,,,,,,,,,,,,,,,,,,,,,,,,,,,,,,001,2022-11-09_14h15.41.253,mini_mfe_online,2022.2.4,60.01849774403631,
,,,,,,,,,,,,,,,,,,,,,,,,,,,,,,,,,,,,,,,,,25.98034999985248,25.98034999985248,25.98034999985248,25.98034999985248,space,0.15908230002969503,,,,,,,,,,,,,,,,,,,,,,,,,,,,,,,,,,,,,,,,,,,,,,,,,,,,,,,001,2022-11-09_14h15.41.253,mini_mfe_online,2022.2.4,60.01849774403631,
,,,,,,,,,,,,,,,,,,,,,,,,,,,,,,,,,,,,,,,,,,,,,,,26.16485369950533,26.16485369950533,26.16485369950533,26.16485369950533,26.16485369950533,space,0.14358519949018955,,,,,,,,,,,,,,,,,,,,,,,,,,,,,,,,,,,,,,,,,,,,,,,,001,2022-11-09_14h15.41.253,mini_mfe_online,2022.2.4,60.01849774403631,
,,,,,,,,,,,,,,,,,,,,,,,,,,,,,,,,,,,,,,,,,,,,,,,,,,,,,,26.331724899820983,26.331724899820983,26.331724899820983,26.331724899820983,space,0.15276960097253323,,,,,,,,,,,,,,,,,,,,,,,,,,,,,,,,,,,,,,,,,,001,2022-11-09_14h15.41.253,mini_mfe_online,2022.2.4,60.01849774403631,
a_halfV_trialTable_practice.csv,img/rightArrow.png,img/rightArrow.png,img/rightArrow.png,5,1,right,"[0, 0]","[0.0385, 0]","[-0.0385, 0]",img/neutralC/CFD-BF-206-143-N.jpg,"[0.035, 0.035]",0,0,0,0,0,0,0,6,,,,,,,,,,,,,,,,,,,,,,,,,,,,,,,,,,,,,,,,,30.77599549945444,30.77599549945444,30.77599549945444,k,0.8866587001830339,31.687778099440038,3.82064128256513,33.90846710000187,33.90846710000187,33.90846710000187,33.90846710000187,34.114323399960995,34.263695700094104,37.91126890014857,37.91126890014857,['k'],[0.4374404000118375],1,,,,,,,,,,,,,,,,,,,,,,,,001,2022-11-09_14h15.41.253,mini_mfe_online,2022.2.4,60.01849774403631,
a_halfV_trialTable_practice.csv,img/rightArrow.png,img/rightArrow.png,img/rightArrow.png,5,1,right,"[0, 0]","[0.0385, 0]","[-0.0385, 0]",img/neutralC/CFD-BM-248-128-N.jpg,"[0.035, 0.035]",0,0,0,0,0,1,1,4,,,,,,,,,,,,,,,,,,,,,,,,,,,,,,,,,,,,,,,,,,,,,,,3.55310621242485,37.91126890014857,37.91126890014857,37.91126890014857,37.91126890014857,38.11390750017017,38.26391499955207,41.66704740002751,41.66704740002751,['k'],[0.6017581997439265],1,,,,,,,,,,,,,,,,,,,,,,,,001,2022-11-09_14h15.41.253,mini_mfe_online,2022.2.4,60.01849774403631,
a_halfV_trialTable_practice.csv,img/rightArrow.png,img/leftArrow.png,img/leftArrow.png,7,0,right,"[0, 0]","[0.0385, 0]","[-0.0385, 0]",img/neutralC/CFD-BF-048-002-N.jpg,"[0.035, 0.035]",0,0,0,0,0,2,2,1,,,,,,,,,,,,,,,,,,,,,,,,,,,,,,,,,,,,,,,,,,,,,,,3.975951903807615,41.66704740002751,41.66704740002751,41.66704740002751,41.66704740002751,41.88029559981078,42.02999269962311,45.83607139997184,45.83607139997184,['k'],[0.4270243002101779],1,,,,,,,,,,,,,,,,,,,,,,,,001,2022-11-09_14h15.41.253,mini_mfe_online,2022.2.4,60.01849774403631,
a_halfV_trialTable_practice.csv,img/leftArrow.png,img/rightArrow.png,img/rightArrow.png,8,0,left,"[0, 0]","[0.0385, 0]","[-0.0385, 0]",img/neutralC/CFD-AM-223-138-N.jpg,"[0.035, 0.035]",0,0,0,0,0,3,3,8,,,,,,,,,,,,,,,,,,,,,,,,,,,,,,,,,,,,,,,,,,,,,,,3.74749498997996,45.83607139997184,45.83607139997184,45.83607139997184,45.83607139997184,46.04621579963714,46.19628189969808,49.76805670000613,49.76805670000613,['s'],[0.602941800840199],1,,,,,,,,,,,,,,,,,,,,,,,,001,2022-11-09_14h15.41.253,mini_mfe_online,2022.2.4,60.01849774403631,
a_halfV_trialTable_practice.csv,img/leftArrow.png,img/leftArrow.png,img/leftArrow.png,6,1,left,"[0, 0]","[0.0385, 0]","[-0.0385, 0]",img/neutralC/CFD-LM-235-231-N.jpg,"[0.035, 0.035]",0,0,0,0,0,4,4,14,,,,,,,,,,,,,,,,,,,,,,,,,,,,,,,,,,,,,,,,,,,,,,,3.996993987975952,49.76805670000613,49.76805670000613,49.76805670000613,49.76805670000613,49.979118200019,50.12892080005258,53.9687065994367,53.9687065994367,['s'],[0.4921639999374747],1,,,,,,,,,,,,,,,,,,,,,,,,001,2022-11-09_14h15.41.253,mini_mfe_online,2022.2.4,60.01849774403631,
a_halfV_trialTable_practice.csv,img/rightArrow.png,img/rightArrow.png,img/rightArrow.png,5,1,right,"[0, 0]","[0.0385, 0]","[-0.0385, 0]",img/neutralC/CFD-BF-029-031-N.jpg,"[0.035, 0.035]",0,0,0,0,0,5,5,13,,,,,,,,,,,,,,,,,,,,,,,,,,,,,,,,,,,,,,,,,,,,,,,3.850701402805611,53.9687065994367,53.9687065994367,53.9687065994367,53.9687065994367,54.17865979950875,54.32887839991599,58.00625249929726,58.00625249929726,['k'],[0.4620184004306793],1,,,,,,,,,,,,,,,,,,,,,,,,001,2022-11-09_14h15.41.253,mini_mfe_online,2022.2.4,60.01849774403631,
a_halfV_trialTable_practice.csv,img/leftArrow.png,img/rightArrow.png,img/rightArrow.png,8,0,left,"[0, 0]","[0.0385, 0]","[-0.0385, 0]",img/neutralC/CFD-LF-238-154-N.jpg,"[0.035, 0.035]",0,0,0,0,0,6,6,9,,,,,,,,,,,,,,,,,,,,,,,,,,,,,,,,,,,,,,,,,,,,,,,3.7895791583166334,58.00625249929726,58.00625249929726,58.00625249929726,58.00625249929726,58.21190229989588,58.36163579951972,62.006673499941826,62.006673499941826,['s'],[0.594637599773705],1,,,,,,,,,,,,,,,,,,,,,,,,001,2022-11-09_14h15.41.253,mini_mfe_online,2022.2.4,60.01849774403631,
a_halfV_trialTable_practice.csv,img/leftArrow.png,img/leftArrow.png,img/leftArrow.png,6,1,left,"[0, 0]","[0.0385, 0]","[-0.0385, 0]",img/neutralC/CFD-IF-710-016-N.jpg,"[0.035, 0.035]",0,0,0,0,0,7,7,5,,,,,,,,,,,,,,,,,,,,,,,,,,,,,,,,,,,,,,,,,,,,,,,3.8657314629258517,62.006673499941826,62.006673499941826,62.006673499941826,62.006673499941826,62.21147250011563,62.36110319942236,66.06943009980023,66.06943009980023,['s'],[0.48786630015820265],1,,,,,,,,,,,,,,,,,,,,,,,,001,2022-11-09_14h15.41.253,mini_mfe_online,2022.2.4,60.01849774403631,
a_halfV_trialTable_practice.csv,img/rightArrow.png,img/rightArrow.png,img/rightArrow.png,5,1,right,"[0, 0]","[0.0385, 0]","[-0.0385, 0]",img/neutralC/CFD-IM-617-174-N.jpg,"[0.035, 0.035]",0,0,0,0,0,8,8,12,,,,,,,,,,,,,,,,,,,,,,,,,,,,,,,,,,,,,,,,,,,,,,,3.812625250501002,66.06943009980023,66.06943009980023,66.06943009980023,66.06943009980023,66.27793100010604,66.42753019928932,70.07066889945418,70.07066889945418,['k'],[0.5401659002527595],1,,,,,,,,,,,,,,,,,,,,,,,,001,2022-11-09_14h15.41.253,mini_mfe_online,2022.2.4,60.01849774403631,
a_halfV_trialTable_practice.csv,img/leftArrow.png,img/leftArrow.png,img/leftArrow.png,6,1,left,"[0, 0]","[0.0385, 0]","[-0.0385, 0]",img/neutralC/CFD-WM-024-015-N.jpg,"[0.035, 0.035]",0,0,0,0,0,9,9,17,,,,,,,,,,,,,,,,,,,,,,,,,,,,,,,,,,,,,,,,,,,,,,,3.758517034068136,70.07066889945418,70.07066889945418,70.07066889945418,70.07066889945418,70.27727029938251,70.42691399995238,74.0096870996058,74.0096870996058,['s'],[0.40756160020828247],1,,,,,,,,,,,,,,,,,,,,,,,,001,2022-11-09_14h15.41.253,mini_mfe_online,2022.2.4,60.01849774403631,
a_halfV_trialTable_practice.csv,img/leftArrow.png,img/leftArrow.png,img/leftArrow.png,6,1,left,"[0, 0]","[0.0385, 0]","[-0.0385, 0]",img/neutralC/CFD-WM-244-003-N.jpg,"[0.035, 0.035]",0,0,0,0,0,10,10,0,,,,,,,,,,,,,,,,,,,,,,,,,,,,,,,,,,,,,,,,,,,,,,,3.5450901803607215,74.0096870996058,74.0096870996058,74.0096870996058,74.0096870996058,74.21006949990988,74.36013559997082,77.71950019989163,77.71950019989163,['s'],[0.5780076002702117],1,,,,,,,,,,,,,,,,,,,,,,,,001,2022-11-09_14h15.41.253,mini_mfe_online,2022.2.4,60.01849774403631,
a_halfV_trialTable_practice.csv,img/rightArrow.png,img/leftArrow.png,img/leftArrow.png,7,0,right,"[0, 0]","[0.0385, 0]","[-0.0385, 0]",img/neutralC/CFD-BM-017-021-N.jpg,"[0.035, 0.035]",0,0,0,0,0,11,11,10,,,,,,,,,,,,,,,,,,,,,,,,,,,,,,,,,,,,,,,,,,,,,,,3.6072144288577155,77.71950019989163,77.71950019989163,77.71950019989163,77.71950019989163,77.9263762999326,78.07620089966804,81.48217500001192,81.48217500001192,['k'],[0.5377470003440976],1,,,,,,,,,,,,,,,,,,,,,,,,001,2022-11-09_14h15.41.253,mini_mfe_online,2022.2.4,60.01849774403631,
a_halfV_trialTable_practice.csv,img/rightArrow.png,img/rightArrow.png,img/rightArrow.png,5,1,right,"[0, 0]","[0.0385, 0]","[-0.0385, 0]",img/neutralC/CFD-AM-230-150-N.jpg,"[0.035, 0.035]",0,0,0,0,0,12,12,15,,,,,,,,,,,,,,,,,,,,,,,,,,,,,,,,,,,,,,,,,,,,,,,3.5691382765531063,81.48217500001192,81.48217500001192,81.48217500001192,81.48217500001192,81.69307469949126,81.84282819926739,85.2271408000961,85.2271408000961,['k'],[0.4191418010741472],1,,,,,,,,,,,,,,,,,,,,,,,,001,2022-11-09_14h15.41.253,mini_mfe_online,2022.2.4,60.01849774403631,
a_halfV_trialTable_practice.csv,img/leftArrow.png,img/rightArrow.png,img/rightArrow.png,8,0,left,"[0, 0]","[0.0385, 0]","[-0.0385, 0]",img/neutralC/CFD-MF-330-001-N.jpg,"[0.035, 0.035]",0,0,0,0,0,13,13,7,,,,,,,,,,,,,,,,,,,,,,,,,,,,,,,,,,,,,,,,,,,,,,,3.6492985971943885,85.2271408000961,85.2271408000961,85.2271408000961,85.2271408000961,85.44289040006697,85.59220789931715,89.06497150007635,89.06497150007635,['s'],[0.5108259003609419],1,,,,,,,,,,,,,,,,,,,,,,,,001,2022-11-09_14h15.41.253,mini_mfe_online,2022.2.4,60.01849774403631,
a_halfV_trialTable_practice.csv,img/rightArrow.png,img/leftArrow.png,img/leftArrow.png,7,0,right,"[0, 0]","[0.0385, 0]","[-0.0385, 0]",img/neutralC/CFD-MM-308-001-N.jpg,"[0.035, 0.035]",0,0,0,0,0,14,14,18,,,,,,,,,,,,,,,,,,,,,,,,,,,,,,,,,,,,,,,,,,,,,,,3.920841683366733,89.06497150007635,89.06497150007635,89.06497150007635,89.06497150007635,89.2753789993003,89.42516160011292,93.14479559939355,93.14479559939355,['k'],[0.42220790032297373],1,,,,,,,,,,,,,,,,,,,,,,,,001,2022-11-09_14h15.41.253,mini_mfe_online,2022.2.4,60.01849774403631,
a_halfV_trialTable_practice.csv,img/leftArrow.png,img/leftArrow.png,img/leftArrow.png,6,1,left,"[0, 0]","[0.0385, 0]","[-0.0385, 0]",img/neutralC/CFD-AM-236-090-N.jpg,"[0.035, 0.035]",0,0,0,0,0,15,15,16,,,,,,,,,,,,,,,,,,,,,,,,,,,,,,,,,,,,,,,,,,,,,,,3.9839679358717435,93.14479559939355,93.14479559939355,93.14479559939355,93.14479559939355,93.35835269931704,93.50809230003506,97.31196649931371,97.31196649931371,['s'],[0.6018261006101966],1,,,,,,,,,,,,,,,,,,,,,,,,001,2022-11-09_14h15.41.253,mini_mfe_online,2022.2.4,60.01849774403631,
a_halfV_trialTable_practice.csv,img/leftArrow.png,img/rightArrow.png,img/rightArrow.png,8,0,left,"[0, 0]","[0.0385, 0]","[-0.0385, 0]",img/neutralC/CFD-WM-250-157-N.jpg,"[0.035, 0.035]",0,0,0,0,0,16,16,3,,,,,,,,,,,,,,,,,,,,,,,,,,,,,,,,,,,,,,,,,,,,,,,3.917835671342685,97.31196649931371,97.31196649931371,97.31196649931371,97.31196649931371,97.52448419947177,97.67446079943329,101.40648039989173,101.40648039989173,['s'],[0.5678142001852393],1,,,,,,,,,,,,,,,,,,,,,,,,001,2022-11-09_14h15.41.253,mini_mfe_online,2022.2.4,60.01849774403631,
a_halfV_trialTable_practice.csv,img/leftArrow.png,img/rightArrow.png,img/rightArrow.png,8,0,left,"[0, 0]","[0.0385, 0]","[-0.0385, 0]",img/neutralC/CFD-BM-214-075-N.jpg,"[0.035, 0.035]",0,0,0,0,0,17,17,19,,,,,,,,,,,,,,,,,,,,,,,,,,,,,,,,,,,,,,,,,,,,,,,3.5330661322645294,101.40648039989173,101.40648039989173,101.40648039989173,101.40648039989173,101.60783880017698,101.75738659966737,105.10345749929547,105.10345749929547,['s'],[0.5923784002661705],1,,,,,,,,,,,,,,,,,,,,,,,,001,2022-11-09_14h15.41.253,mini_mfe_online,2022.2.4,60.01849774403631,
a_halfV_trialTable_practice.csv,img/rightArrow.png,img/leftArrow.png,img/leftArrow.png,7,0,right,"[0, 0]","[0.0385, 0]","[-0.0385, 0]",img/neutralC/CFD-IF-644-306-1-N.jpg,"[0.035, 0.035]",0,0,0,0,0,18,18,2,,,,,,,,,,,,,,,,,,,,,,,,,,,,,,,,,,,,,,,,,,,,,,,3.846693386773547,105.10345749929547,105.10345749929547,105.10345749929547,105.10345749929547,105.3072410998866,105.45694530010223,109.13821079954505,109.13821079954505,['k'],[0.532706300728023],1,,,,,,,,,,,,,,,,,,,,,,,,001,2022-11-09_14h15.41.253,mini_mfe_online,2022.2.4,60.01849774403631,
a_halfV_trialTable_practice.csv,img/rightArrow.png,img/leftArrow.png,img/leftArrow.png,7,0,right,"[0, 0]","[0.0385, 0]","[-0.0385, 0]",img/neutralC/CFD-LM-211-128-N.jpg,"[0.035, 0.035]",0,0,0,0,0,19,19,11,,,,,,,,,,,,,,,,,,,,,,,,,,,,,,,,,,,,,,,,,,,,,,,3.539078156312625,109.13821079954505,109.13821079954505,109.13821079954505,109.13821079954505,109.34016789961606,109.4897003993392,112.68826299998909,112.68826299998909,['k'],[0.5206540999934077],1,,,,,,,,,,,,,,,,,,,,,,,,001,2022-11-09_14h15.41.253,mini_mfe_online,2022.2.4,60.01849774403631,
a_halfV_trialTable_practice.csv,,,,,,,,,,,,0,0,0,0,,,,,,,,,,,,,,,,,,,,,,,,,,,,,,,,,,,,,,,,,,,,,,,,,,,,,,,,,,,,,,,112.68826299998909,112.68826299998909,112.68826299998909,k,349.74978370033205,,,,,,,,,,,,,,,,,,,001,2022-11-09_14h15.41.253,mini_mfe_online,2022.2.4,60.01849774403631,
a_halfV_trialTable_6.csv,img/leftArrow.png,img/rightArrow.png,img/rightArrow.png,8,0,left,"[0, 0]","[0.0385, 0]","[-0.0385, 0]",img/neutralC/CFD-WM-236-072-N.jpg,"[0.035, 0.035]",,,,,,,,,0,0,0,5,0,0,0,25,,,,,,,,,,,,,,,,,,,,,,,,,,,,,,,,,,,,,,478.9446430001408,3.7935871743486973,,,,,,,,,,,0,,,,,,462.50143940001726,462.50143940001726,k,16.410333700478077,481.18074169941247,481.18074169941247,481.18074169941247,481.18074169941247,481.18074169941247,481.38598569948226,481.5359184993431,485.1501612998545,485.1501612998545,485.1501612998545,['k'],[0.5432468997314572],,,001,2022-11-09_14h15.41.253,mini_mfe_online,2022.2.4,60.01849774403631,
a_halfV_trialTable_6.csv,img/rightArrow.png,img/rightArrow.png,img/rightArrow.png,5,1,right,"[0, 0]","[0.0385, 0]","[-0.0385, 0]",img/neutralC/CFD-MF-331-010-N.jpg,"[0.035, 0.035]",,,,,,,,,0,0,0,5,0,1,1,21,,,,,,,,,,,,,,,,,,,,,,,,,,,,,,,,,,,,,,,3.624248496993988,,,,,,,,,,,1,,,,,,,,,,485.1501612998545,485.1501612998545,485.1501612998545,485.1501612998545,485.1501612998545,485.3525462001562,485.5020483992994,488.9482840001583,488.9482840001583,488.9482840001583,['k'],[0.579360100440681],,,001,2022-11-09_14h15.41.253,mini_mfe_online,2022.2.4,60.01849774403631,
a_halfV_trialTable_6.csv,img/rightArrow.png,img/leftArrow.png,img/leftArrow.png,7,0,right,"[0, 0]","[0.0385, 0]","[-0.0385, 0]",img/neutralC/CFD-BF-216-132-N.jpg,"[0.035, 0.035]",,,,,,,,,0,0,0,5,0,2,2,28,,,,,,,,,,,,,,,,,,,,,,,,,,,,,,,,,,,,,,,3.970941883767535,,,,,,,,,,,1,,,,,,,,,,488.9482840001583,488.9482840001583,488.9482840001583,488.9482840001583,488.9482840001583,489.1521218996495,489.3018535999581,493.14407300017774,493.14407300017774,493.14407300017774,['k'],[0.4767575999721885],,,001,2022-11-09_14h15.41.253,mini_mfe_online,2022.2.4,60.01849774403631,
a_halfV_trialTable_6.csv,img/leftArrow.png,img/leftArrow.png,img/leftArrow.png,6,1,left,"[0, 0]","[0.0385, 0]","[-0.0385, 0]",img/neutralC/CFD-LM-204-001-N.jpg,"[0.035, 0.035]",,,,,,,,,0,0,0,5,0,3,3,3,,,,,,,,,,,,,,,,,,,,,,,,,,,,,,,,,,,,,,,3.664328657314629,,,,,,,,,,,1,,,,,,,,,,493.14407300017774,493.14407300017774,493.14407300017774,493.14407300017774,493.14407300017774,493.35176919959486,493.5012921001762,496.9778311997652,496.9778311997652,496.9778311997652,['s'],[0.742106900550425],,,001,2022-11-09_14h15.41.253,mini_mfe_online,2022.2.4,60.01849774403631,
a_halfV_trialTable_6.csv,img/rightArrow.png,img/leftArrow.png,img/leftArrow.png,7,0,right,"[0, 0]","[0.0385, 0]","[-0.0385, 0]",img/neutralC/CFD-AF-243-170-N.jpg,"[0.035, 0.035]",,,,,,,,,0,0,0,5,0,4,4,13,,,,,,,,,,,,,,,,,,,,,,,,,,,,,,,,,,,,,,,3.6052104208416837,,,,,,,,,,,1,,,,,,,,,,496.9778311997652,496.9778311997652,496.9778311997652,496.9778311997652,496.9778311997652,497.18447449989617,497.3344489997253,500.74864509981126,500.74864509981126,500.74864509981126,['k'],[0.4732055002823472],,,001,2022-11-09_14h15.41.253,mini_mfe_online,2022.2.4,60.01849774403631,
a_halfV_trialTable_6.csv,img/rightArrow.png,img/rightArrow.png,img/rightArrow.png,5,1,right,"[0, 0]","[0.0385, 0]","[-0.0385, 0]",img/neutralC/CFD-WM-015-002-N.jpg,"[0.035, 0.035]",,,,,,,,,0,0,0,5,0,5,5,30,,,,,,,,,,,,,,,,,,,,,,,,,,,,,,,,,,,,,,,3.9498997995991987,,,,,,,,,,,1,,,,,,,,,,500.74864509981126,500.74864509981126,500.74864509981126,500.74864509981126,500.74864509981126,500.9510038001463,501.1004985999316,504.8470311993733,504.8470311993733,504.8470311993733,['k'],[0.45076730009168386],,,001,2022-11-09_14h15.41.253,mini_mfe_online,2022.2.4,60.01849774403631,
a_halfV_trialTable_6.csv,img/leftArrow.png,img/rightArrow.png,img/rightArrow.png,8,0,left,"[0, 0]","[0.0385, 0]","[-0.0385, 0]",img/neutralC/CFD-AM-210-035-N.jpg,"[0.035, 0.035]",,,,,,,,,0,0,0,5,0,6,6,31,,,,,,,,,,,,,,,,,,,,,,,,,,,,,,,,,,,,,,,3.6973947895791586,,,,,,,,,,,1,,,,,,,,,,504.8470311993733,504.8470311993733,504.8470311993733,504.8470311993733,504.8470311993733,505.0506521994248,505.2002622997388,508.71207859925926,508.71207859925926,508.71207859925926,['s'],[0.5700385998934507],,,001,2022-11-09_14h15.41.253,mini_mfe_online,2022.2.4,60.01849774403631,
a_halfV_trialTable_6.csv,img/rightArrow.png,img/leftArrow.png,img/leftArrow.png,7,0,right,"[0, 0]","[0.0385, 0]","[-0.0385, 0]",img/neutralC/CFD-IF-650-315-N.jpg,"[0.035, 0.035]",,,,,,,,,0,0,0,5,0,7,7,7,,,,,,,,,,,,,,,,,,,,,,,,,,,,,,,,,,,,,,,3.7595190380761525,,,,,,,,,,,1,,,,,,,,,,508.71207859925926,508.71207859925926,508.71207859925926,508.71207859925926,508.71207859925926,508.916618200019,509.06661990005523,512.6432909993455,512.6432909993455,512.6432909993455,['k'],[0.352445300668478],,,001,2022-11-09_14h15.41.253,mini_mfe_online,2022.2.4,60.01849774403631,
a_halfV_trialTable_6.csv,img/leftArrow.png,img/leftArrow.png,img/leftArrow.png,6,1,left,"[0, 0]","[0.0385, 0]","[-0.0385, 0]",img/neutralC/CFD-WM-035-032-N.jpg,"[0.035, 0.035]",,,,,,,,,0,0,0,5,0,8,8,0,,,,,,,,,,,,,,,,,,,,,,,,,,,,,,,,,,,,,,,3.687374749498998,,,,,,,,,,,1,,,,,,,,,,512.6432909993455,512.6432909993455,512.6432909993455,512.6432909993455,512.6432909993455,512.8497497998178,512.999342199415,516.5017230994999,516.5017230994999,516.5017230994999,['s'],[0.41434890031814575],,,001,2022-11-09_14h15.41.253,mini_mfe_online,2022.2.4,60.01849774403631,
a_halfV_trialTable_6.csv,img/leftArrow.png,img/leftArrow.png,img/leftArrow.png,6,1,left,"[0, 0]","[0.0385, 0]","[-0.0385, 0]",img/neutralC/CFD-BF-240-179-N.jpg,"[0.035, 0.035]",,,,,,,,,0,0,0,5,0,9,9,4,,,,,,,,,,,,,,,,,,,,,,,,,,,,,,,,,,,,,,,3.5160320641282565,,,,,,,,,,,1,,,,,,,,,,516.5017230994999,516.5017230994999,516.5017230994999,516.5017230994999,516.5017230994999,516.716338600032,516.8661111993715,520.2059522001073,520.2059522001073,520.2059522001073,['s'],[0.6591336010023952],,,001,2022-11-09_14h15.41.253,mini_mfe_online,2022.2.4,60.01849774403631,
a_halfV_trialTable_6.csv,img/rightArrow.png,img/rightArrow.png,img/rightArrow.png,5,1,right,"[0, 0]","[0.0385, 0]","[-0.0385, 0]",img/neutralC/CFD-LF-255-088-N.jpg,"[0.035, 0.035]",,,,,,,,,0,0,0,5,0,10,10,15,,,,,,,,,,,,,,,,,,,,,,,,,,,,,,,,,,,,,,,3.773547094188377,,,,,,,,,,,1,,,,,,,,,,520.2059522001073,520.2059522001073,520.2059522001073,520.2059522001073,520.2059522001073,520.4157571000978,520.5653913998976,524.241655100137,524.241655100137,524.241655100137,['k'],[0.45213970076292753],,,001,2022-11-09_14h15.41.253,mini_mfe_online,2022.2.4,60.01849774403631,
a_halfV_trialTable_6.csv,img/leftArrow.png,img/rightArrow.png,img/rightArrow.png,8,0,left,"[0, 0]","[0.0385, 0]","[-0.0385, 0]",img/neutralC/CFD-IM-687-511-N.jpg,"[0.035, 0.035]",,,,,,,,,0,0,0,5,0,11,11,16,,,,,,,,,,,,,,,,,,,,,,,,,,,,,,,,,,,,,,,3.765531062124248,,,,,,,,,,,1,,,,,,,,,,524.241655100137,524.241655100137,524.241655100137,524.241655100137,524.241655100137,524.4486100999638,524.5981677994132,528.1737621994689,528.1737621994689,528.1737621994689,['s'],[0.41338100004941225],,,001,2022-11-09_14h15.41.253,mini_mfe_online,2022.2.4,60.01849774403631,
a_halfV_trialTable_6.csv,img/leftArrow.png,img/leftArrow.png,img/leftArrow.png,6,1,left,"[0, 0]","[0.0385, 0]","[-0.0385, 0]",img/neutralC/CFD-IF-668-009-N.jpg,"[0.035, 0.035]",,,,,,,,,0,0,0,5,0,12,12,26,,,,,,,,,,,,,,,,,,,,,,,,,,,,,,,,,,,,,,,3.8456913827655312,,,,,,,,,,,1,,,,,,,,,,528.1737621994689,528.1737621994689,528.1737621994689,528.1737621994689,528.1737621994689,528.3815655997023,528.5311839999631,532.1809383993968,532.1809383993968,532.1809383993968,['s'],[0.5457001002505422],,,001,2022-11-09_14h15.41.253,mini_mfe_online,2022.2.4,60.01849774403631,
a_halfV_trialTable_6.csv,img/rightArrow.png,img/leftArrow.png,img/leftArrow.png,7,0,right,"[0, 0]","[0.0385, 0]","[-0.0385, 0]",img/neutralC/CFD-AM-233-236-N.jpg,"[0.035, 0.035]",,,,,,,,,0,0,0,5,0,13,13,12,,,,,,,,,,,,,,,,,,,,,,,,,,,,,,,,,,,,,,,3.9519038076152304,,,,,,,,,,,1,,,,,,,,,,532.1809383993968,532.1809383993968,532.1809383993968,532.1809383993968,532.1809383993968,532.3809473998845,532.5306665999815,536.3120192997158,536.3120192997158,536.3120192997158,['k'],[0.3747636005282402],,,001,2022-11-09_14h15.41.253,mini_mfe_online,2022.2.4,60.01849774403631,
a_halfV_trialTable_6.csv,img/leftArrow.png,img/rightArrow.png,img/rightArrow.png,8,0,left,"[0, 0]","[0.0385, 0]","[-0.0385, 0]",img/neutralC/CFD-LM-243-075-N.jpg,"[0.035, 0.035]",,,,,,,,,0,0,0,5,0,14,14,2,,,,,,,,,,,,,,,,,,,,,,,,,,,,,,,,,,,,,,,3.591182364729459,,,,,,,,,,,1,,,,,,,,,,536.3120192997158,536.3120192997158,536.3120192997158,536.3120192997158,536.3120192997158,536.5139838997275,536.663725499995,540.1112180994824,540.1112180994824,540.1112180994824,['s'],[0.480578999966383],,,001,2022-11-09_14h15.41.253,mini_mfe_online,2022.2.4,60.01849774403631,
a_halfV_trialTable_6.csv,img/leftArrow.png,img/rightArrow.png,img/rightArrow.png,8,0,left,"[0, 0]","[0.0385, 0]","[-0.0385, 0]",img/neutralC/CFD-BF-015-004-N.jpg,"[0.035, 0.035]",,,,,,,,,0,0,0,5,0,15,15,24,,,,,,,,,,,,,,,,,,,,,,,,,,,,,,,,,,,,,,,3.7324649298597197,,,,,,,,,,,1,,,,,,,,,,540.1112180994824,540.1112180994824,540.1112180994824,540.1112180994824,540.1112180994824,540.3137467000633,540.4633462000638,544.0128376996145,544.0128376996145,544.0128376996145,['s'],[0.6975614009425044],,,001,2022-11-09_14h15.41.253,mini_mfe_online,2022.2.4,60.01849774403631,
a_halfV_trialTable_6.csv,img/rightArrow.png,img/rightArrow.png,img/rightArrow.png,5,1,right,"[0, 0]","[0.0385, 0]","[-0.0385, 0]",img/neutralC/CFD-IM-655-234-N.jpg,"[0.035, 0.035]",,,,,,,,,0,0,0,5,0,16,16,11,,,,,,,,,,,,,,,,,,,,,,,,,,,,,,,,,,,,,,,3.750501002004008,,,,,,,,,,,1,,,,,,,,,,544.0128376996145,544.0128376996145,544.0128376996145,544.0128376996145,544.0128376996145,544.2133669992909,544.3630269998685,547.9481429001316,547.9481429001316,547.9481429001316,['k'],[0.5169520005583763],,,001,2022-11-09_14h15.41.253,mini_mfe_online,2022.2.4,60.01849774403631,
a_halfV_trialTable_6.csv,img/rightArrow.png,img/rightArrow.png,img/rightArrow.png,5,1,right,"[0, 0]","[0.0385, 0]","[-0.0385, 0]",img/neutralC/CFD-IM-738-191-N.jpg,"[0.035, 0.035]",,,,,,,,,0,0,0,5,0,17,17,9,,,,,,,,,,,,,,,,,,,,,,,,,,,,,,,,,,,,,,,3.8897795591182365,,,,,,,,,,,1,,,,,,,,,,547.9481429001316,547.9481429001316,547.9481429001316,547.9481429001316,547.9481429001316,548.16306169983,548.3127119001001,552.0081305997446,552.0081305997446,552.0081305997446,['k'],[0.6456872001290321],,,001,2022-11-09_14h15.41.253,mini_mfe_online,2022.2.4,60.01849774403631,
a_halfV_trialTable_6.csv,img/rightArrow.png,img/rightArrow.png,img/rightArrow.png,5,1,right,"[0, 0]","[0.0385, 0]","[-0.0385, 0]",img/neutralC/CFD-LF-222-147-N.jpg,"[0.035, 0.035]",,,,,,,,,0,0,0,5,0,18,18,23,,,,,,,,,,,,,,,,,,,,,,,,,,,,,,,,,,,,,,,3.5681362725450905,,,,,,,,,,,1,,,,,,,,,,552.0081305997446,552.0081305997446,552.0081305997446,552.0081305997446,552.0081305997446,552.2124836994335,552.3622939996421,555.7428139001131,555.7428139001131,555.7428139001131,['k'],[0.47981199994683266],,,001,2022-11-09_14h15.41.253,mini_mfe_online,2022.2.4,60.01849774403631,
a_halfV_trialTable_6.csv,img/rightArrow.png,img/leftArrow.png,img/leftArrow.png,7,0,right,"[0, 0]","[0.0385, 0]","[-0.0385, 0]",img/neutralC/CFD-IM-690-282-N.jpg,"[0.035, 0.035]",,,,,,,,,0,0,0,5,0,19,19,10,,,,,,,,,,,,,,,,,,,,,,,,,,,,,,,,,,,,,,,3.7895791583166334,,,,,,,,,,,1,,,,,,,,,,555.7428139001131,555.7428139001131,555.7428139001131,555.7428139001131,555.7428139001131,555.9454143997282,556.0952391000465,559.7070635994896,559.7070635994896,559.7070635994896,['k'],[0.5028640003874898],,,001,2022-11-09_14h15.41.253,mini_mfe_online,2022.2.4,60.01849774403631,
a_halfV_trialTable_6.csv,img/leftArrow.png,img/leftArrow.png,img/leftArrow.png,6,1,left,"[0, 0]","[0.0385, 0]","[-0.0385, 0]",img/neutralC/CFD-WF-216-079-N.jpg,"[0.035, 0.035]",,,,,,,,,0,0,0,5,0,20,20,5,,,,,,,,,,,,,,,,,,,,,,,,,,,,,,,,,,,,,,,3.603206412825651,,,,,,,,,,,1,,,,,,,,,,559.7070635994896,559.7070635994896,559.7070635994896,559.7070635994896,559.7070635994896,559.9115996994078,560.0614264998585,563.4761316999793,563.4761316999793,563.4761316999793,['s'],[0.5694308998063207],,,001,2022-11-09_14h15.41.253,mini_mfe_online,2022.2.4,60.01849774403631,
a_halfV_trialTable_6.csv,img/rightArrow.png,img/leftArrow.png,img/leftArrow.png,7,0,right,"[0, 0]","[0.0385, 0]","[-0.0385, 0]",img/neutralC/CFD-LF-253-003-N.jpg,"[0.035, 0.035]",,,,,,,,,0,0,0,5,0,21,21,19,,,,,,,,,,,,,,,,,,,,,,,,,,,,,,,,,,,,,,,3.590180360721443,,,,,,,,,,,1,,,,,,,,,,563.4761316999793,563.4761316999793,563.4761316999793,563.4761316999793,563.4761316999793,563.6782538993284,563.8279887000099,567.2345348000526,567.2345348000526,567.2345348000526,['k'],[0.8494287002831697],,,001,2022-11-09_14h15.41.253,mini_mfe_online,2022.2.4,60.01849774403631,
a_halfV_trialTable_6.csv,img/leftArrow.png,img/rightArrow.png,img/rightArrow.png,8,0,left,"[0, 0]","[0.0385, 0]","[-0.0385, 0]",img/neutralC/CFD-BM-226-276-N.jpg,"[0.035, 0.035]",,,,,,,,,0,0,0,5,0,22,22,8,,,,,,,,,,,,,,,,,,,,,,,,,,,,,,,,,,,,,,,3.853707414829659,,,,,,,,,,,0,,,,,,,,,,567.2345348000526,567.2345348000526,567.2345348000526,567.2345348000526,567.2345348000526,567.4443368995562,567.593825799413,571.2682778993621,571.2682778993621,571.2682778993621,['k'],[1.1835794998332858],,,001,2022-11-09_14h15.41.253,mini_mfe_online,2022.2.4,60.01849774403631,
a_halfV_trialTable_6.csv,img/leftArrow.png,img/leftArrow.png,img/leftArrow.png,6,1,left,"[0, 0]","[0.0385, 0]","[-0.0385, 0]",img/neutralC/CFD-AF-232-078-N.jpg,"[0.035, 0.035]",,,,,,,,,0,0,0,5,0,23,23,17,,,,,,,,,,,,,,,,,,,,,,,,,,,,,,,,,,,,,,,3.7905811623246493,,,,,,,,,,,1,,,,,,,,,,571.2682778993621,571.2682778993621,571.2682778993621,571.2682778993621,571.2682778993621,571.4772194996476,571.6269057998434,575.2164993993938,575.2164993993938,575.2164993993938,['s'],[0.5325547000393271],,,001,2022-11-09_14h15.41.253,mini_mfe_online,2022.2.4,60.01849774403631,
a_halfV_trialTable_6.csv,img/leftArrow.png,img/leftArrow.png,img/leftArrow.png,6,1,left,"[0, 0]","[0.0385, 0]","[-0.0385, 0]",img/neutralC/CFD-BM-229-209-N.jpg,"[0.035, 0.035]",,,,,,,,,0,0,0,5,0,24,24,18,,,,,,,,,,,,,,,,,,,,,,,,,,,,,,,,,,,,,,,3.8196392785571143,,,,,,,,,,,1,,,,,,,,,,575.2164993993938,575.2164993993938,575.2164993993938,575.2164993993938,575.2164993993938,575.4268517000601,575.5765693001449,579.1957454001531,579.1957454001531,579.1957454001531,['s'],[0.5161327002570033],,,001,2022-11-09_14h15.41.253,mini_mfe_online,2022.2.4,60.01849774403631,
a_halfV_trialTable_6.csv,img/leftArrow.png,img/leftArrow.png,img/leftArrow.png,6,1,left,"[0, 0]","[0.0385, 0]","[-0.0385, 0]",img/neutralC/CFD-LF-234-139-N.jpg,"[0.035, 0.035]",,,,,,,,,0,0,0,5,0,25,25,29,,,,,,,,,,,,,,,,,,,,,,,,,,,,,,,,,,,,,,,3.920841683366733,,,,,,,,,,,1,,,,,,,,,,579.1957454001531,579.1957454001531,579.1957454001531,579.1957454001531,579.1957454001531,579.4098796993494,579.5595538998023,583.3007690999657,583.3007690999657,583.3007690999657,['s'],[0.47561660036444664],,,001,2022-11-09_14h15.41.253,mini_mfe_online,2022.2.4,60.01849774403631,
a_halfV_trialTable_6.csv,img/rightArrow.png,img/rightArrow.png,img/rightArrow.png,5,1,right,"[0, 0]","[0.0385, 0]","[-0.0385, 0]",img/neutralC/CFD-AF-220-107-N.jpg,"[0.035, 0.035]",,,,,,,,,0,0,0,5,0,26,26,14,,,,,,,,,,,,,,,,,,,,,,,,,,,,,,,,,,,,,,,3.570140280561122,,,,,,,,,,,1,,,,,,,,,,583.3007690999657,583.3007690999657,583.3007690999657,583.3007690999657,583.3007690999657,583.5094495993108,583.6592545993626,587.0363488998264,587.0363488998264,587.0363488998264,['k'],[0.5123884007334709],,,001,2022-11-09_14h15.41.253,mini_mfe_online,2022.2.4,60.01849774403631,
a_halfV_trialTable_6.csv,img/leftArrow.png,img/rightArrow.png,img/rightArrow.png,8,0,left,"[0, 0]","[0.0385, 0]","[-0.0385, 0]",img/neutralC/CFD-AM-218-085-N.jpg,"[0.035, 0.035]",,,,,,,,,0,0,0,5,0,27,27,22,,,,,,,,,,,,,,,,,,,,,,,,,,,,,,,,,,,,,,,3.55811623246493,,,,,,,,,,,1,,,,,,,,,,587.0363488998264,587.0363488998264,587.0363488998264,587.0363488998264,587.0363488998264,587.2423334997147,587.3920062994584,590.7677119001746,590.7677119001746,590.7677119001746,['s'],[0.5813225004822016],,,001,2022-11-09_14h15.41.253,mini_mfe_online,2022.2.4,60.01849774403631,
a_halfV_trialTable_6.csv,img/rightArrow.png,img/leftArrow.png,img/leftArrow.png,7,0,right,"[0, 0]","[0.0385, 0]","[-0.0385, 0]",img/neutralC/CFD-BF-221-223-N.jpg,"[0.035, 0.035]",,,,,,,,,0,0,0,5,0,28,28,20,,,,,,,,,,,,,,,,,,,,,,,,,,,,,,,,,,,,,,,3.9238476953907817,,,,,,,,,,,1,,,,,,,,,,590.7677119001746,590.7677119001746,590.7677119001746,590.7677119001746,590.7677119001746,590.9754566000775,591.1249770997092,594.8867972996086,594.8867972996086,594.8867972996086,['k'],[0.5750276995822787],,,001,2022-11-09_14h15.41.253,mini_mfe_online,2022.2.4,60.01849774403631,
a_halfV_trialTable_6.csv,img/rightArrow.png,img/rightArrow.png,img/rightArrow.png,5,1,right,"[0, 0]","[0.0385, 0]","[-0.0385, 0]",img/neutralC/CFD-BF-223-250-N.jpg,"[0.035, 0.035]",,,,,,,,,0,0,0,5,0,29,29,6,,,,,,,,,,,,,,,,,,,,,,,,,,,,,,,,,,,,,,,3.773547094188377,,,,,,,,,,,1,,,,,,,,,,594.8867972996086,594.8867972996086,594.8867972996086,594.8867972996086,594.8867972996086,595.0918279001489,595.2414972996339,598.8389841997996,598.8389841997996,598.8389841997996,['k'],[0.5391955003142357],,,001,2022-11-09_14h15.41.253,mini_mfe_online,2022.2.4,60.01849774403631,
a_halfV_trialTable_6.csv,img/leftArrow.png,img/rightArrow.png,img/rightArrow.png,8,0,left,"[0, 0]","[0.0385, 0]","[-0.0385, 0]",img/neutralC/CFD-LM-213-061-N.jpg,"[0.035, 0.035]",,,,,,,,,0,0,0,5,0,30,30,27,,,,,,,,,,,,,,,,,,,,,,,,,,,,,,,,,,,,,,,3.8306613226452906,,,,,,,,,,,1,,,,,,,,,,598.8389841997996,598.8389841997996,598.8389841997996,598.8389841997996,598.8389841997996,599.0412719994783,599.1908518997952,602.8212027000263,602.8212027000263,602.8212027000263,['s'],[0.6164755001664162],,,001,2022-11-09_14h15.41.253,mini_mfe_online,2022.2.4,60.01849774403631,
a_halfV_trialTable_6.csv,img/rightArrow.png,img/leftArrow.png,img/leftArrow.png,7,0,right,"[0, 0]","[0.0385, 0]","[-0.0385, 0]",img/neutralC/CFD-BF-220-161-N.jpg,"[0.035, 0.035]",,,,,,,,,0,0,0,5,0,31,31,1,,,,,,,,,,,,,,,,,,,,,,,,,,,,,,,,,,,,,,,3.850701402805611,,,,,,,,,,,1,,,,,,,,,,602.8212027000263,602.8212027000263,602.8212027000263,602.8212027000263,602.8212027000263,603.0238624997437,603.1737327994779,606.696571899578,606.696571899578,606.696571899578,['k'],[0.4672966003417969],,,001,2022-11-09_14h15.41.253,mini_mfe_online,2022.2.4,60.01849774403631,
,,,,,,,,,,,,,,,,,,,,,,,,,,,,,,,,,,,,,,,,,,,,,,,,,,,,,,,,,,,,,,,,,,,,,,,,,,,,,,,,,,,,,,,,,,,,,,,,,,,2,606.696571899578,,,,,,
