whichSurpriseBlock,instructsurpA1,instructsurpA2,newKey,taskTextSource,surpriseFaces,new,prac_block_loop.thisRepN,prac_block_loop.thisTrialN,prac_block_loop.thisN,prac_block_loop.thisIndex,task_block_loop.thisRepN,task_block_loop.thisTrialN,task_block_loop.thisN,task_block_loop.thisIndex,surprise_block_loop.thisRepN,surprise_block_loop.thisTrialN,surprise_block_loop.thisN,surprise_block_loop.thisIndex,trials.thisRepN,trials.thisTrialN,trials.thisN,trials.thisIndex,headerZoom1.started,zoomSetupText1.started,joinAudio.started,instructContinue10.started,key_resp_26.started,key_resp_26.keys,key_resp_26.rt,zoomSetupText2.started,meetingControls.started,instructContinue11.started,key_resp_27.started,key_resp_27.keys,key_resp_27.rt,zoomSetupText3.started,microphoneImage.started,instructContinue12.started,key_resp_28.started,key_resp_28.keys,key_resp_28.rt,zoomSetupText4.started,recordToComp.started,instructContinue13.started,greenConfirmBar.started,key_resp_29.started,key_resp_29.keys,key_resp_29.rt,zoomSetupText5.started,hideControls.started,instructContinue14.started,key_resp_30.started,key_resp_30.keys,key_resp_30.rt,fix.started,fix.stopped,errorNumbers_text_2.started,errorNum_text_box.started,errorN_key_resp_2.started,errorNum_text_box.text,errorN_key_resp_2.keys,errorN_key_resp_2.rt,errorNumbers_text_3.started,errorPercent_text_box.started,errorN_key_resp_3.started,errorPercent_text_box.text,errorN_key_resp_3.keys,errorN_key_resp_3.rt,botherRate_text.started,bother_text_box.started,botherRate_key_resp.started,bother_text_box.text,botherRate_key_resp.keys,botherRate_key_resp.rt,instruct_surprise1.started,instruct_surp1_key_resp.keys,instruct_surp1_key_resp.rt,instructMainTask_text.started,instructMainTask_keyResp.started,instructMainTask_keyResp.keys,instructMainTask_keyResp.rt,stimulus.started,instructsurpA1_right.started,instructsurpA2_left.started,surprise_key_resp.started,surprise_key_resp.keys,surprise_key_resp.rt,finishMessage_text.started,finishMessage_text.stopped,id,date,expName,psychopyVersion,frameRate,
,,,,,,,,,,,,,,,,,,,,,,,17.804872100241482,17.804872100241482,17.804872100241482,17.804872100241482,17.804872100241482,space,0.6725295996293426,,,,,,,,,,,,,,,,,,,,,,,,,,,,,,,,,,,,,,,,,,,,,,,,,,,,,,,,,,,,,003,2022-11-09_14h28.54.803,mini_mfe_online,2022.2.4,60.00239989074478,
,,,,,,,,,,,,,,,,,,,,,,,,,,,,,,18.50137349963188,18.50137349963188,18.50137349963188,18.50137349963188,space,0.34801220055669546,,,,,,,,,,,,,,,,,,,,,,,,,,,,,,,,,,,,,,,,,,,,,,,,,,,,,,,003,2022-11-09_14h28.54.803,mini_mfe_online,2022.2.4,60.00239989074478,
,,,,,,,,,,,,,,,,,,,,,,,,,,,,,,,,,,,,18.88120620045811,18.88120620045811,18.88120620045811,18.88120620045811,space,0.23700399976223707,,,,,,,,,,,,,,,,,,,,,,,,,,,,,,,,,,,,,,,,,,,,,,,,,003,2022-11-09_14h28.54.803,mini_mfe_online,2022.2.4,60.00239989074478,
,,,,,,,,,,,,,,,,,,,,,,,,,,,,,,,,,,,,,,,,,,19.148774599656463,19.148774599656463,19.148774599656463,19.148774599656463,19.148774599656463,space,0.22143959999084473,,,,,,,,,,,,,,,,,,,,,,,,,,,,,,,,,,,,,,,,,,003,2022-11-09_14h28.54.803,mini_mfe_online,2022.2.4,60.00239989074478,
,,,,,,,,,,,,,,,,,,,,,,,,,,,,,,,,,,,,,,,,,,,,,,,,,19.399061299860477,19.399061299860477,19.399061299860477,19.399061299860477,space,0.24090509954839945,,,,,,,,,,,,,,,,,,,,,,,,,,,,,,,,,,,,003,2022-11-09_14h28.54.803,mini_mfe_online,2022.2.4,60.00239989074478,
,,,,,,,,,,,,,,,,,,,,,,,,,,,,,,,,,,,,,,,,,,,,,,,,,,,,,,,22.880532099865377,23.380933299660683,23.380933299660683,23.380933299660683,23.380933299660683,,space,0.6157599994912744,,,,,,,,,,,,,,,,,,,,,,,,,,,,003,2022-11-09_14h28.54.803,mini_mfe_online,2022.2.4,60.00239989074478,
,,,,,,,,,,,,,,,,,,,,,,,,,,,,,,,,,,,,,,,,,,,,,,,,,,,,,,,,,,,,,,,24.01427510008216,24.01427510008216,24.01427510008216,,space,0.42853149957954884,,,,,,,,,,,,,,,,,,,,,,003,2022-11-09_14h28.54.803,mini_mfe_online,2022.2.4,60.00239989074478,
,,,,,,,,,,,,,,,,,,,,,,,,,,,,,,,,,,,,,,,,,,,,,,,,,,,,,,,,,,,,,,,,,,,,,24.464172700420022,24.464172700420022,24.464172700420022,,space,0.4334998996928334,,,,,,,,,,,,,,,,003,2022-11-09_14h28.54.803,mini_mfe_online,2022.2.4,60.00239989074478,
,,,,,,,,,,,,,,,,,,,,,,,,,,,,,,,,,,,,,,,,,,,,,,,,,,,,,,,,,,,,,,,,,,,,,,,,,,,24.91494520008564,k,1.2864872002974153,,,,,,,,,,,,,003,2022-11-09_14h28.54.803,mini_mfe_online,2022.2.4,60.00239989074478,
half_surp_table1.csv,OLD - 'K' Key,NEW - 'S' Key,s,"In this round, press the 'K' key when the face is OLD and the 'S' key when it is new.

To get ready, rest your right and left index fingers on the 'K' and 'S' keys, then press the 'K' when you are ready to begin.",img/neutralC/CFD-AF-220-107-N.jpg,0,,,,,,,,,0,0,0,0,0,0,0,14,,,,,,,,,,,,,,,,,,,,,,,,,,,,,,,,,,,,,,,,,,,,,,,,,,,,,,,,26.247373499907553,26.247373499907553,k,1.041542999446392,27.457860600203276,27.457860600203276,27.457860600203276,27.457860600203276,s,2.567186100408435,,,003,2022-11-09_14h28.54.803,mini_mfe_online,2022.2.4,60.00239989074478,
half_surp_table1.csv,OLD - 'K' Key,NEW - 'S' Key,s,"In this round, press the 'K' key when the face is OLD and the 'S' key when it is new.

To get ready, rest your right and left index fingers on the 'K' and 'S' keys, then press the 'K' when you are ready to begin.",img/neutralC/CFD-AM-218-085-N.jpg,0,,,,,,,,,0,0,0,0,0,1,1,4,,,,,,,,,,,,,,,,,,,,,,,,,,,,,,,,,,,,,,,,,,,,,,,,,,,,,,,,,,,,30.133610700257123,30.133610700257123,30.133610700257123,30.133610700257123,k,9.486335199326277,,,003,2022-11-09_14h28.54.803,mini_mfe_online,2022.2.4,60.00239989074478,
half_surp_table1.csv,OLD - 'K' Key,NEW - 'S' Key,s,"In this round, press the 'K' key when the face is OLD and the 'S' key when it is new.

To get ready, rest your right and left index fingers on the 'K' and 'S' keys, then press the 'K' when you are ready to begin.",img/neutralC/CFD-BF-013-001-N.jpg,0,,,,,,,,,0,0,0,0,0,2,2,12,,,,,,,,,,,,,,,,,,,,,,,,,,,,,,,,,,,,,,,,,,,,,,,,,,,,,,,,,,,,39.74115480016917,39.74115480016917,39.74115480016917,39.74115480016917,s,3.5941322995349765,,,003,2022-11-09_14h28.54.803,mini_mfe_online,2022.2.4,60.00239989074478,
half_surp_table1.csv,OLD - 'K' Key,NEW - 'S' Key,s,"In this round, press the 'K' key when the face is OLD and the 'S' key when it is new.

To get ready, rest your right and left index fingers on the 'K' and 'S' keys, then press the 'K' when you are ready to begin.",img/neutralC/CFD-LF-203-066-N.jpg,1,,,,,,,,,0,0,0,0,0,3,3,52,,,,,,,,,,,,,,,,,,,,,,,,,,,,,,,,,,,,,,,,,,,,,,,,,,,,,,,,,,,,43.45953250024468,43.45953250024468,43.45953250024468,43.45953250024468,s,1.6392524000257254,,,003,2022-11-09_14h28.54.803,mini_mfe_online,2022.2.4,60.00239989074478,
half_surp_table1.csv,OLD - 'K' Key,NEW - 'S' Key,s,"In this round, press the 'K' key when the face is OLD and the 'S' key when it is new.

To get ready, rest your right and left index fingers on the 'K' and 'S' keys, then press the 'K' when you are ready to begin.",img/neutralC/CFD-IM-658-284-N.jpg,0,,,,,,,,,0,0,0,0,0,4,4,10,,,,,,,,,,,,,,,,,,,,,,,,,,,,,,,,,,,,,,,,,,,,,,,,,,,,,,,,,,,,45.232592600397766,45.232592600397766,45.232592600397766,45.232592600397766,s,1.3283569002524018,,,003,2022-11-09_14h28.54.803,mini_mfe_online,2022.2.4,60.00239989074478,
half_surp_table1.csv,OLD - 'K' Key,NEW - 'S' Key,s,"In this round, press the 'K' key when the face is OLD and the 'S' key when it is new.

To get ready, rest your right and left index fingers on the 'K' and 'S' keys, then press the 'K' when you are ready to begin.",img/neutralC/CFD-AF-214-139-N.jpg,1,,,,,,,,,0,0,0,0,0,5,5,28,,,,,,,,,,,,,,,,,,,,,,,,,,,,,,,,,,,,,,,,,,,,,,,,,,,,,,,,,,,,46.66716829966754,46.66716829966754,46.66716829966754,46.66716829966754,k,1.4970568995922804,,,003,2022-11-09_14h28.54.803,mini_mfe_online,2022.2.4,60.00239989074478,
half_surp_table1.csv,OLD - 'K' Key,NEW - 'S' Key,s,"In this round, press the 'K' key when the face is OLD and the 'S' key when it is new.

To get ready, rest your right and left index fingers on the 'K' and 'S' keys, then press the 'K' when you are ready to begin.",img/neutralC/CFD-LM-204-001-N.jpg,0,,,,,,,,,0,0,0,0,0,6,6,30,,,,,,,,,,,,,,,,,,,,,,,,,,,,,,,,,,,,,,,,,,,,,,,,,,,,,,,,,,,,48.276371399872005,48.276371399872005,48.276371399872005,48.276371399872005,k,1.0529624000191689,,,003,2022-11-09_14h28.54.803,mini_mfe_online,2022.2.4,60.00239989074478,
half_surp_table1.csv,OLD - 'K' Key,NEW - 'S' Key,s,"In this round, press the 'K' key when the face is OLD and the 'S' key when it is new.

To get ready, rest your right and left index fingers on the 'K' and 'S' keys, then press the 'K' when you are ready to begin.",img/neutralC/CFD-LF-233-277-N.jpg,0,,,,,,,,,0,0,0,0,0,7,7,63,,,,,,,,,,,,,,,,,,,,,,,,,,,,,,,,,,,,,,,,,,,,,,,,,,,,,,,,,,,,49.45865810010582,49.45865810010582,49.45865810010582,49.45865810010582,s,1.2581485994160175,,,003,2022-11-09_14h28.54.803,mini_mfe_online,2022.2.4,60.00239989074478,
half_surp_table1.csv,OLD - 'K' Key,NEW - 'S' Key,s,"In this round, press the 'K' key when the face is OLD and the 'S' key when it is new.

To get ready, rest your right and left index fingers on the 'K' and 'S' keys, then press the 'K' when you are ready to begin.",img/neutralC/CFD-BF-017-003-N.jpg,0,,,,,,,,,0,0,0,0,0,8,8,1,,,,,,,,,,,,,,,,,,,,,,,,,,,,,,,,,,,,,,,,,,,,,,,,,,,,,,,,,,,,50.83628000039607,50.83628000039607,50.83628000039607,50.83628000039607,k,1.1541436007246375,,,003,2022-11-09_14h28.54.803,mini_mfe_online,2022.2.4,60.00239989074478,
half_surp_table1.csv,OLD - 'K' Key,NEW - 'S' Key,s,"In this round, press the 'K' key when the face is OLD and the 'S' key when it is new.

To get ready, rest your right and left index fingers on the 'K' and 'S' keys, then press the 'K' when you are ready to begin.",img/neutralC/CFD-AF-244-168-N.jpg,1,,,,,,,,,0,0,0,0,0,9,9,65,,,,,,,,,,,,,,,,,,,,,,,,,,,,,,,,,,,,,,,,,,,,,,,,,,,,,,,,,,,,52.10073439963162,52.10073439963162,52.10073439963162,52.10073439963162,k,1.4637898998335004,,,003,2022-11-09_14h28.54.803,mini_mfe_online,2022.2.4,60.00239989074478,
half_surp_table1.csv,OLD - 'K' Key,NEW - 'S' Key,s,"In this round, press the 'K' key when the face is OLD and the 'S' key when it is new.

To get ready, rest your right and left index fingers on the 'K' and 'S' keys, then press the 'K' when you are ready to begin.",img/neutralC/CFD-IF-641-504-N.jpg,0,,,,,,,,,0,0,0,0,0,10,10,24,,,,,,,,,,,,,,,,,,,,,,,,,,,,,,,,,,,,,,,,,,,,,,,,,,,,,,,,,,,,53.688174800015986,53.688174800015986,53.688174800015986,53.688174800015986,k,0.978770200163126,,,003,2022-11-09_14h28.54.803,mini_mfe_online,2022.2.4,60.00239989074478,
half_surp_table1.csv,OLD - 'K' Key,NEW - 'S' Key,s,"In this round, press the 'K' key when the face is OLD and the 'S' key when it is new.

To get ready, rest your right and left index fingers on the 'K' and 'S' keys, then press the 'K' when you are ready to begin.",img/neutralC/CFD-LF-227-054-N.jpg,0,,,,,,,,,0,0,0,0,0,11,11,55,,,,,,,,,,,,,,,,,,,,,,,,,,,,,,,,,,,,,,,,,,,,,,,,,,,,,,,,,,,,54.790136699564755,54.790136699564755,54.790136699564755,54.790136699564755,s,1.0613188995048404,,,003,2022-11-09_14h28.54.803,mini_mfe_online,2022.2.4,60.00239989074478,
half_surp_table1.csv,OLD - 'K' Key,NEW - 'S' Key,s,"In this round, press the 'K' key when the face is OLD and the 'S' key when it is new.

To get ready, rest your right and left index fingers on the 'K' and 'S' keys, then press the 'K' when you are ready to begin.",img/neutralC/CFD-WM-203-023-N.jpg,1,,,,,,,,,0,0,0,0,0,12,12,45,,,,,,,,,,,,,,,,,,,,,,,,,,,,,,,,,,,,,,,,,,,,,,,,,,,,,,,,,,,,55.97256589960307,55.97256589960307,55.97256589960307,55.97256589960307,k,0.9650427997112274,,,003,2022-11-09_14h28.54.803,mini_mfe_online,2022.2.4,60.00239989074478,
half_surp_table1.csv,OLD - 'K' Key,NEW - 'S' Key,s,"In this round, press the 'K' key when the face is OLD and the 'S' key when it is new.

To get ready, rest your right and left index fingers on the 'K' and 'S' keys, then press the 'K' when you are ready to begin.",img/neutralC/CFD-MM-322-002-N.jpg,0,,,,,,,,,0,0,0,0,0,13,13,3,,,,,,,,,,,,,,,,,,,,,,,,,,,,,,,,,,,,,,,,,,,,,,,,,,,,,,,,,,,,57.05138859990984,57.05138859990984,57.05138859990984,57.05138859990984,k,1.0487425001338124,,,003,2022-11-09_14h28.54.803,mini_mfe_online,2022.2.4,60.00239989074478,
half_surp_table1.csv,OLD - 'K' Key,NEW - 'S' Key,s,"In this round, press the 'K' key when the face is OLD and the 'S' key when it is new.

To get ready, rest your right and left index fingers on the 'K' and 'S' keys, then press the 'K' when you are ready to begin.",img/neutralC/CFD-IF-677-452-1-N.jpg,0,,,,,,,,,0,0,0,0,0,14,14,15,,,,,,,,,,,,,,,,,,,,,,,,,,,,,,,,,,,,,,,,,,,,,,,,,,,,,,,,,,,,58.22470539994538,58.22470539994538,58.22470539994538,58.22470539994538,k,2.7861139997839928,,,003,2022-11-09_14h28.54.803,mini_mfe_online,2022.2.4,60.00239989074478,
half_surp_table1.csv,OLD - 'K' Key,NEW - 'S' Key,s,"In this round, press the 'K' key when the face is OLD and the 'S' key when it is new.

To get ready, rest your right and left index fingers on the 'K' and 'S' keys, then press the 'K' when you are ready to begin.",img/neutralC/CFD-AM-232-251-N.jpg,0,,,,,,,,,0,0,0,0,0,15,15,20,,,,,,,,,,,,,,,,,,,,,,,,,,,,,,,,,,,,,,,,,,,,,,,,,,,,,,,,,,,,61.120227499864995,61.120227499864995,61.120227499864995,61.120227499864995,s,0.9559818003326654,,,003,2022-11-09_14h28.54.803,mini_mfe_online,2022.2.4,60.00239989074478,
half_surp_table1.csv,OLD - 'K' Key,NEW - 'S' Key,s,"In this round, press the 'K' key when the face is OLD and the 'S' key when it is new.

To get ready, rest your right and left index fingers on the 'K' and 'S' keys, then press the 'K' when you are ready to begin.",img/neutralC/CFD-WF-208-068-N.jpg,0,,,,,,,,,0,0,0,0,0,16,16,58,,,,,,,,,,,,,,,,,,,,,,,,,,,,,,,,,,,,,,,,,,,,,,,,,,,,,,,,,,,,62.196232199668884,62.196232199668884,62.196232199668884,62.196232199668884,k,1.0437264004722238,,,003,2022-11-09_14h28.54.803,mini_mfe_online,2022.2.4,60.00239989074478,
half_surp_table1.csv,OLD - 'K' Key,NEW - 'S' Key,s,"In this round, press the 'K' key when the face is OLD and the 'S' key when it is new.

To get ready, rest your right and left index fingers on the 'K' and 'S' keys, then press the 'K' when you are ready to begin.",img/neutralC/CFD-LM-233-171-N.jpg,1,,,,,,,,,0,0,0,0,0,17,17,49,,,,,,,,,,,,,,,,,,,,,,,,,,,,,,,,,,,,,,,,,,,,,,,,,,,,,,,,,,,,63.35285220015794,63.35285220015794,63.35285220015794,63.35285220015794,k,1.0748620005324483,,,003,2022-11-09_14h28.54.803,mini_mfe_online,2022.2.4,60.00239989074478,
half_surp_table1.csv,OLD - 'K' Key,NEW - 'S' Key,s,"In this round, press the 'K' key when the face is OLD and the 'S' key when it is new.

To get ready, rest your right and left index fingers on the 'K' and 'S' keys, then press the 'K' when you are ready to begin.",img/neutralC/CFD-MM-313-002-N.jpg,0,,,,,,,,,0,0,0,0,0,18,18,18,,,,,,,,,,,,,,,,,,,,,,,,,,,,,,,,,,,,,,,,,,,,,,,,,,,,,,,,,,,,64.54077959991992,64.54077959991992,64.54077959991992,64.54077959991992,s,1.5792780993506312,,,003,2022-11-09_14h28.54.803,mini_mfe_online,2022.2.4,60.00239989074478,
half_surp_table1.csv,OLD - 'K' Key,NEW - 'S' Key,s,"In this round, press the 'K' key when the face is OLD and the 'S' key when it is new.

To get ready, rest your right and left index fingers on the 'K' and 'S' keys, then press the 'K' when you are ready to begin.",img/neutralC/CFD-WM-201-063-N.jpg,1,,,,,,,,,0,0,0,0,0,19,19,46,,,,,,,,,,,,,,,,,,,,,,,,,,,,,,,,,,,,,,,,,,,,,,,,,,,,,,,,,,,,66.24192880000919,66.24192880000919,66.24192880000919,66.24192880000919,k,0.9170675007626414,,,003,2022-11-09_14h28.54.803,mini_mfe_online,2022.2.4,60.00239989074478,
half_surp_table1.csv,OLD - 'K' Key,NEW - 'S' Key,s,"In this round, press the 'K' key when the face is OLD and the 'S' key when it is new.

To get ready, rest your right and left index fingers on the 'K' and 'S' keys, then press the 'K' when you are ready to begin.",img/neutralC/CFD-WF-201-156-N.jpg,0,,,,,,,,,0,0,0,0,0,20,20,64,,,,,,,,,,,,,,,,,,,,,,,,,,,,,,,,,,,,,,,,,,,,,,,,,,,,,,,,,,,,67.28088449966162,67.28088449966162,67.28088449966162,67.28088449966162,k,0.9012209000065923,,,003,2022-11-09_14h28.54.803,mini_mfe_online,2022.2.4,60.00239989074478,
half_surp_table1.csv,OLD - 'K' Key,NEW - 'S' Key,s,"In this round, press the 'K' key when the face is OLD and the 'S' key when it is new.

To get ready, rest your right and left index fingers on the 'K' and 'S' keys, then press the 'K' when you are ready to begin.",img/neutralC/CFD-WF-224-099-N.jpg,1,,,,,,,,,0,0,0,0,0,21,21,2,,,,,,,,,,,,,,,,,,,,,,,,,,,,,,,,,,,,,,,,,,,,,,,,,,,,,,,,,,,,68.33554769959301,68.33554769959301,68.33554769959301,68.33554769959301,k,0.8113510003313422,,,003,2022-11-09_14h28.54.803,mini_mfe_online,2022.2.4,60.00239989074478,
half_surp_table1.csv,OLD - 'K' Key,NEW - 'S' Key,s,"In this round, press the 'K' key when the face is OLD and the 'S' key when it is new.

To get ready, rest your right and left index fingers on the 'K' and 'S' keys, then press the 'K' when you are ready to begin.",img/neutralC/CFD-AM-229-224-N.jpg,0,,,,,,,,,0,0,0,0,0,22,22,42,,,,,,,,,,,,,,,,,,,,,,,,,,,,,,,,,,,,,,,,,,,,,,,,,,,,,,,,,,,,69.27673640009016,69.27673640009016,69.27673640009016,69.27673640009016,k,1.1174180004745722,,,003,2022-11-09_14h28.54.803,mini_mfe_online,2022.2.4,60.00239989074478,
half_surp_table1.csv,OLD - 'K' Key,NEW - 'S' Key,s,"In this round, press the 'K' key when the face is OLD and the 'S' key when it is new.

To get ready, rest your right and left index fingers on the 'K' and 'S' keys, then press the 'K' when you are ready to begin.",img/neutralC/CFD-IM-686-097-N.jpg,0,,,,,,,,,0,0,0,0,0,23,23,35,,,,,,,,,,,,,,,,,,,,,,,,,,,,,,,,,,,,,,,,,,,,,,,,,,,,,,,,,,,,70.51317030005157,70.51317030005157,70.51317030005157,70.51317030005157,s,2.9845214001834393,,,003,2022-11-09_14h28.54.803,mini_mfe_online,2022.2.4,60.00239989074478,
half_surp_table1.csv,OLD - 'K' Key,NEW - 'S' Key,s,"In this round, press the 'K' key when the face is OLD and the 'S' key when it is new.

To get ready, rest your right and left index fingers on the 'K' and 'S' keys, then press the 'K' when you are ready to begin.",img/neutralC/CFD-WF-027-003-N.jpg,0,,,,,,,,,0,0,0,0,0,24,24,0,,,,,,,,,,,,,,,,,,,,,,,,,,,,,,,,,,,,,,,,,,,,,,,,,,,,,,,,,,,,73.62201779987663,73.62201779987663,73.62201779987663,73.62201779987663,k,0.8027595998719335,,,003,2022-11-09_14h28.54.803,mini_mfe_online,2022.2.4,60.00239989074478,
half_surp_table1.csv,OLD - 'K' Key,NEW - 'S' Key,s,"In this round, press the 'K' key when the face is OLD and the 'S' key when it is new.

To get ready, rest your right and left index fingers on the 'K' and 'S' keys, then press the 'K' when you are ready to begin.",img/neutralC/CFD-AM-216-114-N.jpg,1,,,,,,,,,0,0,0,0,0,25,25,6,,,,,,,,,,,,,,,,,,,,,,,,,,,,,,,,,,,,,,,,,,,,,,,,,,,,,,,,,,,,74.54464649967849,74.54464649967849,74.54464649967849,74.54464649967849,s,0.9857770996168256,,,003,2022-11-09_14h28.54.803,mini_mfe_online,2022.2.4,60.00239989074478,
half_surp_table1.csv,OLD - 'K' Key,NEW - 'S' Key,s,"In this round, press the 'K' key when the face is OLD and the 'S' key when it is new.

To get ready, rest your right and left index fingers on the 'K' and 'S' keys, then press the 'K' when you are ready to begin.",img/neutralC/CFD-AF-210-050-N.jpg,0,,,,,,,,,0,0,0,0,0,26,26,13,,,,,,,,,,,,,,,,,,,,,,,,,,,,,,,,,,,,,,,,,,,,,,,,,,,,,,,,,,,,75.65222099982202,75.65222099982202,75.65222099982202,75.65222099982202,s,0.8569734999909997,,,003,2022-11-09_14h28.54.803,mini_mfe_online,2022.2.4,60.00239989074478,
half_surp_table1.csv,OLD - 'K' Key,NEW - 'S' Key,s,"In this round, press the 'K' key when the face is OLD and the 'S' key when it is new.

To get ready, rest your right and left index fingers on the 'K' and 'S' keys, then press the 'K' when you are ready to begin.",img/neutralC/CFD-IM-681-253-N.jpg,0,,,,,,,,,0,0,0,0,0,27,27,19,,,,,,,,,,,,,,,,,,,,,,,,,,,,,,,,,,,,,,,,,,,,,,,,,,,,,,,,,,,,76.62843769975007,76.62843769975007,76.62843769975007,76.62843769975007,s,0.8844462996348739,,,003,2022-11-09_14h28.54.803,mini_mfe_online,2022.2.4,60.00239989074478,
half_surp_table1.csv,OLD - 'K' Key,NEW - 'S' Key,s,"In this round, press the 'K' key when the face is OLD and the 'S' key when it is new.

To get ready, rest your right and left index fingers on the 'K' and 'S' keys, then press the 'K' when you are ready to begin.",img/neutralC/CFD-IM-645-001-N.jpg,0,,,,,,,,,0,0,0,0,0,28,28,23,,,,,,,,,,,,,,,,,,,,,,,,,,,,,,,,,,,,,,,,,,,,,,,,,,,,,,,,,,,,77.67174789961427,77.67174789961427,77.67174789961427,77.67174789961427,s,0.8797498997300863,,,003,2022-11-09_14h28.54.803,mini_mfe_online,2022.2.4,60.00239989074478,
half_surp_table1.csv,OLD - 'K' Key,NEW - 'S' Key,s,"In this round, press the 'K' key when the face is OLD and the 'S' key when it is new.

To get ready, rest your right and left index fingers on the 'K' and 'S' keys, then press the 'K' when you are ready to begin.",img/neutralC/CFD-WM-034-030-N.jpg,0,,,,,,,,,0,0,0,0,0,29,29,26,,,,,,,,,,,,,,,,,,,,,,,,,,,,,,,,,,,,,,,,,,,,,,,,,,,,,,,,,,,,78.66639109980315,78.66639109980315,78.66639109980315,78.66639109980315,k,0.7782896002754569,,,003,2022-11-09_14h28.54.803,mini_mfe_online,2022.2.4,60.00239989074478,
half_surp_table1.csv,OLD - 'K' Key,NEW - 'S' Key,s,"In this round, press the 'K' key when the face is OLD and the 'S' key when it is new.

To get ready, rest your right and left index fingers on the 'K' and 'S' keys, then press the 'K' when you are ready to begin.",img/neutralC/CFD-MM-304-002-N.jpg,1,,,,,,,,,0,0,0,0,0,30,30,48,,,,,,,,,,,,,,,,,,,,,,,,,,,,,,,,,,,,,,,,,,,,,,,,,,,,,,,,,,,,79.57173530012369,79.57173530012369,79.57173530012369,79.57173530012369,s,0.937682299874723,,,003,2022-11-09_14h28.54.803,mini_mfe_online,2022.2.4,60.00239989074478,
half_surp_table1.csv,OLD - 'K' Key,NEW - 'S' Key,s,"In this round, press the 'K' key when the face is OLD and the 'S' key when it is new.

To get ready, rest your right and left index fingers on the 'K' and 'S' keys, then press the 'K' when you are ready to begin.",img/neutralC/CFD-WM-009-002-N.jpg,0,,,,,,,,,0,0,0,0,0,31,31,69,,,,,,,,,,,,,,,,,,,,,,,,,,,,,,,,,,,,,,,,,,,,,,,,,,,,,,,,,,,,80.61510489974171,80.61510489974171,80.61510489974171,80.61510489974171,s,0.9625159995630383,,,003,2022-11-09_14h28.54.803,mini_mfe_online,2022.2.4,60.00239989074478,
half_surp_table1.csv,OLD - 'K' Key,NEW - 'S' Key,s,"In this round, press the 'K' key when the face is OLD and the 'S' key when it is new.

To get ready, rest your right and left index fingers on the 'K' and 'S' keys, then press the 'K' when you are ready to begin.",img/neutralC/CFD-WM-017-002-N.jpg,0,,,,,,,,,0,0,0,0,0,32,32,9,,,,,,,,,,,,,,,,,,,,,,,,,,,,,,,,,,,,,,,,,,,,,,,,,,,,,,,,,,,,81.69650499988347,81.69650499988347,81.69650499988347,81.69650499988347,k,0.7756521003320813,,,003,2022-11-09_14h28.54.803,mini_mfe_online,2022.2.4,60.00239989074478,
half_surp_table1.csv,OLD - 'K' Key,NEW - 'S' Key,s,"In this round, press the 'K' key when the face is OLD and the 'S' key when it is new.

To get ready, rest your right and left index fingers on the 'K' and 'S' keys, then press the 'K' when you are ready to begin.",img/neutralC/CFD-LF-245-166-N.jpg,0,,,,,,,,,0,0,0,0,0,33,33,27,,,,,,,,,,,,,,,,,,,,,,,,,,,,,,,,,,,,,,,,,,,,,,,,,,,,,,,,,,,,82.58697849977762,82.58697849977762,82.58697849977762,82.58697849977762,s,1.10182139929384,,,003,2022-11-09_14h28.54.803,mini_mfe_online,2022.2.4,60.00239989074478,
half_surp_table1.csv,OLD - 'K' Key,NEW - 'S' Key,s,"In this round, press the 'K' key when the face is OLD and the 'S' key when it is new.

To get ready, rest your right and left index fingers on the 'K' and 'S' keys, then press the 'K' when you are ready to begin.",img/neutralC/CFD-BM-003-003-N.jpg,0,,,,,,,,,0,0,0,0,0,34,34,70,,,,,,,,,,,,,,,,,,,,,,,,,,,,,,,,,,,,,,,,,,,,,,,,,,,,,,,,,,,,83.80940140038729,83.80940140038729,83.80940140038729,83.80940140038729,k,0.7243643999099731,,,003,2022-11-09_14h28.54.803,mini_mfe_online,2022.2.4,60.00239989074478,
half_surp_table1.csv,OLD - 'K' Key,NEW - 'S' Key,s,"In this round, press the 'K' key when the face is OLD and the 'S' key when it is new.

To get ready, rest your right and left index fingers on the 'K' and 'S' keys, then press the 'K' when you are ready to begin.",img/neutralC/CFD-LF-243-175-N.jpg,0,,,,,,,,,0,0,0,0,0,35,35,31,,,,,,,,,,,,,,,,,,,,,,,,,,,,,,,,,,,,,,,,,,,,,,,,,,,,,,,,,,,,84.65080610010773,84.65080610010773,84.65080610010773,84.65080610010773,s,0.9163663005456328,,,003,2022-11-09_14h28.54.803,mini_mfe_online,2022.2.4,60.00239989074478,
half_surp_table1.csv,OLD - 'K' Key,NEW - 'S' Key,s,"In this round, press the 'K' key when the face is OLD and the 'S' key when it is new.

To get ready, rest your right and left index fingers on the 'K' and 'S' keys, then press the 'K' when you are ready to begin.",img/neutralC/CFD-MF-360-106-N.jpg,1,,,,,,,,,0,0,0,0,0,36,36,5,,,,,,,,,,,,,,,,,,,,,,,,,,,,,,,,,,,,,,,,,,,,,,,,,,,,,,,,,,,,85.68697859998792,85.68697859998792,85.68697859998792,85.68697859998792,s,3.366649300791323,,,003,2022-11-09_14h28.54.803,mini_mfe_online,2022.2.4,60.00239989074478,
half_surp_table1.csv,OLD - 'K' Key,NEW - 'S' Key,s,"In this round, press the 'K' key when the face is OLD and the 'S' key when it is new.

To get ready, rest your right and left index fingers on the 'K' and 'S' keys, then press the 'K' when you are ready to begin.",img/neutralC/CFD-WM-014-002-N.jpg,1,,,,,,,,,0,0,0,0,0,37,37,59,,,,,,,,,,,,,,,,,,,,,,,,,,,,,,,,,,,,,,,,,,,,,,,,,,,,,,,,,,,,89.16731179971248,89.16731179971248,89.16731179971248,89.16731179971248,s,0.8877613004297018,,,003,2022-11-09_14h28.54.803,mini_mfe_online,2022.2.4,60.00239989074478,
half_surp_table1.csv,OLD - 'K' Key,NEW - 'S' Key,s,"In this round, press the 'K' key when the face is OLD and the 'S' key when it is new.

To get ready, rest your right and left index fingers on the 'K' and 'S' keys, then press the 'K' when you are ready to begin.",img/neutralC/CFD-IM-720-014-N.jpg,1,,,,,,,,,0,0,0,0,0,38,38,44,,,,,,,,,,,,,,,,,,,,,,,,,,,,,,,,,,,,,,,,,,,,,,,,,,,,,,,,,,,,90.17064039967954,90.17064039967954,90.17064039967954,90.17064039967954,s,1.1716751996427774,,,003,2022-11-09_14h28.54.803,mini_mfe_online,2022.2.4,60.00239989074478,
half_surp_table1.csv,OLD - 'K' Key,NEW - 'S' Key,s,"In this round, press the 'K' key when the face is OLD and the 'S' key when it is new.

To get ready, rest your right and left index fingers on the 'K' and 'S' keys, then press the 'K' when you are ready to begin.",img/neutralC/CFD-WF-029-002-N.jpg,1,,,,,,,,,0,0,0,0,0,39,39,34,,,,,,,,,,,,,,,,,,,,,,,,,,,,,,,,,,,,,,,,,,,,,,,,,,,,,,,,,,,,91.45121309999377,91.45121309999377,91.45121309999377,91.45121309999377,k,0.8690912006422877,,,003,2022-11-09_14h28.54.803,mini_mfe_online,2022.2.4,60.00239989074478,
half_surp_table1.csv,OLD - 'K' Key,NEW - 'S' Key,s,"In this round, press the 'K' key when the face is OLD and the 'S' key when it is new.

To get ready, rest your right and left index fingers on the 'K' and 'S' keys, then press the 'K' when you are ready to begin.",img/neutralC/CFD-AM-250-149-N.jpg,0,,,,,,,,,0,0,0,0,0,40,40,67,,,,,,,,,,,,,,,,,,,,,,,,,,,,,,,,,,,,,,,,,,,,,,,,,,,,,,,,,,,,92.43934779986739,92.43934779986739,92.43934779986739,92.43934779986739,s,0.8277397006750107,,,003,2022-11-09_14h28.54.803,mini_mfe_online,2022.2.4,60.00239989074478,
half_surp_table1.csv,OLD - 'K' Key,NEW - 'S' Key,s,"In this round, press the 'K' key when the face is OLD and the 'S' key when it is new.

To get ready, rest your right and left index fingers on the 'K' and 'S' keys, then press the 'K' when you are ready to begin.",img/neutralC/CFD-MF-310-027-N.jpg,0,,,,,,,,,0,0,0,0,0,41,41,22,,,,,,,,,,,,,,,,,,,,,,,,,,,,,,,,,,,,,,,,,,,,,,,,,,,,,,,,,,,,93.3902852004394,93.3902852004394,93.3902852004394,93.3902852004394,k,1.1826916998252273,,,003,2022-11-09_14h28.54.803,mini_mfe_online,2022.2.4,60.00239989074478,
half_surp_table1.csv,OLD - 'K' Key,NEW - 'S' Key,s,"In this round, press the 'K' key when the face is OLD and the 'S' key when it is new.

To get ready, rest your right and left index fingers on the 'K' and 'S' keys, then press the 'K' when you are ready to begin.",img/neutralC/CFD-AM-209-048-N.jpg,0,,,,,,,,,0,0,0,0,0,42,42,61,,,,,,,,,,,,,,,,,,,,,,,,,,,,,,,,,,,,,,,,,,,,,,,,,,,,,,,,,,,,94.67675499990582,94.67675499990582,94.67675499990582,94.67675499990582,s,0.9061447000131011,,,003,2022-11-09_14h28.54.803,mini_mfe_online,2022.2.4,60.00239989074478,
half_surp_table1.csv,OLD - 'K' Key,NEW - 'S' Key,s,"In this round, press the 'K' key when the face is OLD and the 'S' key when it is new.

To get ready, rest your right and left index fingers on the 'K' and 'S' keys, then press the 'K' when you are ready to begin.",img/neutralC/CFD-BF-227-137-N.jpg,1,,,,,,,,,0,0,0,0,0,43,43,53,,,,,,,,,,,,,,,,,,,,,,,,,,,,,,,,,,,,,,,,,,,,,,,,,,,,,,,,,,,,95.71035690046847,95.71035690046847,95.71035690046847,95.71035690046847,s,1.0457309996709228,,,003,2022-11-09_14h28.54.803,mini_mfe_online,2022.2.4,60.00239989074478,
half_surp_table1.csv,OLD - 'K' Key,NEW - 'S' Key,s,"In this round, press the 'K' key when the face is OLD and the 'S' key when it is new.

To get ready, rest your right and left index fingers on the 'K' and 'S' keys, then press the 'K' when you are ready to begin.",img/neutralC/CFD-WF-019-005-N.jpg,0,,,,,,,,,0,0,0,0,0,44,44,32,,,,,,,,,,,,,,,,,,,,,,,,,,,,,,,,,,,,,,,,,,,,,,,,,,,,,,,,,,,,96.87087340001017,96.87087340001017,96.87087340001017,96.87087340001017,s,1.4086883999407291,,,003,2022-11-09_14h28.54.803,mini_mfe_online,2022.2.4,60.00239989074478,
half_surp_table1.csv,OLD - 'K' Key,NEW - 'S' Key,s,"In this round, press the 'K' key when the face is OLD and the 'S' key when it is new.

To get ready, rest your right and left index fingers on the 'K' and 'S' keys, then press the 'K' when you are ready to begin.",img/neutralC/CFD-LF-222-147-N.jpg,0,,,,,,,,,0,0,0,0,0,45,45,54,,,,,,,,,,,,,,,,,,,,,,,,,,,,,,,,,,,,,,,,,,,,,,,,,,,,,,,,,,,,98.3986138002947,98.3986138002947,98.3986138002947,98.3986138002947,k,1.9382660007104278,,,003,2022-11-09_14h28.54.803,mini_mfe_online,2022.2.4,60.00239989074478,
half_surp_table1.csv,OLD - 'K' Key,NEW - 'S' Key,s,"In this round, press the 'K' key when the face is OLD and the 'S' key when it is new.

To get ready, rest your right and left index fingers on the 'K' and 'S' keys, then press the 'K' when you are ready to begin.",img/neutralC/CFD-IM-725-142-N.jpg,1,,,,,,,,,0,0,0,0,0,46,46,29,,,,,,,,,,,,,,,,,,,,,,,,,,,,,,,,,,,,,,,,,,,,,,,,,,,,,,,,,,,,100.45571860019118,100.45571860019118,100.45571860019118,100.45571860019118,s,3.3158872006461024,,,003,2022-11-09_14h28.54.803,mini_mfe_online,2022.2.4,60.00239989074478,
half_surp_table1.csv,OLD - 'K' Key,NEW - 'S' Key,s,"In this round, press the 'K' key when the face is OLD and the 'S' key when it is new.

To get ready, rest your right and left index fingers on the 'K' and 'S' keys, then press the 'K' when you are ready to begin.",img/neutralC/CFD-MM-311-001-N.jpg,0,,,,,,,,,0,0,0,0,0,47,47,62,,,,,,,,,,,,,,,,,,,,,,,,,,,,,,,,,,,,,,,,,,,,,,,,,,,,,,,,,,,,103.88393250014633,103.88393250014633,103.88393250014633,103.88393250014633,k,0.6825842997059226,,,003,2022-11-09_14h28.54.803,mini_mfe_online,2022.2.4,60.00239989074478,
half_surp_table1.csv,OLD - 'K' Key,NEW - 'S' Key,s,"In this round, press the 'K' key when the face is OLD and the 'S' key when it is new.

To get ready, rest your right and left index fingers on the 'K' and 'S' keys, then press the 'K' when you are ready to begin.",img/neutralC/CFD-LF-236-221-N.jpg,0,,,,,,,,,0,0,0,0,0,48,48,41,,,,,,,,,,,,,,,,,,,,,,,,,,,,,,,,,,,,,,,,,,,,,,,,,,,,,,,,,,,,104.68015490006655,104.68015490006655,104.68015490006655,104.68015490006655,s,1.0030689993873239,,,003,2022-11-09_14h28.54.803,mini_mfe_online,2022.2.4,60.00239989074478,
half_surp_table1.csv,OLD - 'K' Key,NEW - 'S' Key,s,"In this round, press the 'K' key when the face is OLD and the 'S' key when it is new.

To get ready, rest your right and left index fingers on the 'K' and 'S' keys, then press the 'K' when you are ready to begin.",img/neutralC/CFD-LF-205-100-N.jpg,1,,,,,,,,,0,0,0,0,0,49,49,17,,,,,,,,,,,,,,,,,,,,,,,,,,,,,,,,,,,,,,,,,,,,,,,,,,,,,,,,,,,,105.80341820046306,105.80341820046306,105.80341820046306,105.80341820046306,k,0.5922781005501747,,,003,2022-11-09_14h28.54.803,mini_mfe_online,2022.2.4,60.00239989074478,
half_surp_table1.csv,OLD - 'K' Key,NEW - 'S' Key,s,"In this round, press the 'K' key when the face is OLD and the 'S' key when it is new.

To get ready, rest your right and left index fingers on the 'K' and 'S' keys, then press the 'K' when you are ready to begin.",img/neutralC/CFD-BM-002-013-N.jpg,0,,,,,,,,,0,0,0,0,0,50,50,38,,,,,,,,,,,,,,,,,,,,,,,,,,,,,,,,,,,,,,,,,,,,,,,,,,,,,,,,,,,,106.52184579987079,106.52184579987079,106.52184579987079,106.52184579987079,k,1.1585707999765873,,,003,2022-11-09_14h28.54.803,mini_mfe_online,2022.2.4,60.00239989074478,
half_surp_table1.csv,OLD - 'K' Key,NEW - 'S' Key,s,"In this round, press the 'K' key when the face is OLD and the 'S' key when it is new.

To get ready, rest your right and left index fingers on the 'K' and 'S' keys, then press the 'K' when you are ready to begin.",img/neutralC/CFD-LM-236-163-N.jpg,0,,,,,,,,,0,0,0,0,0,51,51,57,,,,,,,,,,,,,,,,,,,,,,,,,,,,,,,,,,,,,,,,,,,,,,,,,,,,,,,,,,,,107.80988360010087,107.80988360010087,107.80988360010087,107.80988360010087,k,0.598594100214541,,,003,2022-11-09_14h28.54.803,mini_mfe_online,2022.2.4,60.00239989074478,
half_surp_table1.csv,OLD - 'K' Key,NEW - 'S' Key,s,"In this round, press the 'K' key when the face is OLD and the 'S' key when it is new.

To get ready, rest your right and left index fingers on the 'K' and 'S' keys, then press the 'K' when you are ready to begin.",img/neutralC/CFD-LF-255-088-N.jpg,0,,,,,,,,,0,0,0,0,0,52,52,37,,,,,,,,,,,,,,,,,,,,,,,,,,,,,,,,,,,,,,,,,,,,,,,,,,,,,,,,,,,,108.52585719991475,108.52585719991475,108.52585719991475,108.52585719991475,k,0.2121499003842473,,,003,2022-11-09_14h28.54.803,mini_mfe_online,2022.2.4,60.00239989074478,
half_surp_table1.csv,OLD - 'K' Key,NEW - 'S' Key,s,"In this round, press the 'K' key when the face is OLD and the 'S' key when it is new.

To get ready, rest your right and left index fingers on the 'K' and 'S' keys, then press the 'K' when you are ready to begin.",img/neutralC/CFD-MF-327-002-N.jpg,1,,,,,,,,,0,0,0,0,0,53,53,25,,,,,,,,,,,,,,,,,,,,,,,,,,,,,,,,,,,,,,,,,,,,,,,,,,,,,,,,,,,,108.84829469956458,108.84829469956458,108.84829469956458,108.84829469956458,k,0.12150340061634779,,,003,2022-11-09_14h28.54.803,mini_mfe_online,2022.2.4,60.00239989074478,
half_surp_table1.csv,OLD - 'K' Key,NEW - 'S' Key,s,"In this round, press the 'K' key when the face is OLD and the 'S' key when it is new.

To get ready, rest your right and left index fingers on the 'K' and 'S' keys, then press the 'K' when you are ready to begin.",img/neutralC/CFD-LF-237-190-N.jpg,0,,,,,,,,,0,0,0,0,0,54,54,40,,,,,,,,,,,,,,,,,,,,,,,,,,,,,,,,,,,,,,,,,,,,,,,,,,,,,,,,,,,,109.07957900036126,109.07957900036126,109.07957900036126,109.07957900036126,k,0.13547130022197962,,,003,2022-11-09_14h28.54.803,mini_mfe_online,2022.2.4,60.00239989074478,
half_surp_table1.csv,OLD - 'K' Key,NEW - 'S' Key,s,"In this round, press the 'K' key when the face is OLD and the 'S' key when it is new.

To get ready, rest your right and left index fingers on the 'K' and 'S' keys, then press the 'K' when you are ready to begin.",img/neutralC/CFD-IM-709-103-N.jpg,0,,,,,,,,,0,0,0,0,0,55,55,60,,,,,,,,,,,,,,,,,,,,,,,,,,,,,,,,,,,,,,,,,,,,,,,,,,,,,,,,,,,,109.36450039967895,109.36450039967895,109.36450039967895,109.36450039967895,k,0.06079360004514456,,,003,2022-11-09_14h28.54.803,mini_mfe_online,2022.2.4,60.00239989074478,
half_surp_table1.csv,OLD - 'K' Key,NEW - 'S' Key,s,"In this round, press the 'K' key when the face is OLD and the 'S' key when it is new.

To get ready, rest your right and left index fingers on the 'K' and 'S' keys, then press the 'K' when you are ready to begin.",img/neutralC/CFD-WF-020-002-N.jpg,1,,,,,,,,,0,0,0,0,0,56,56,56,,,,,,,,,,,,,,,,,,,,,,,,,,,,,,,,,,,,,,,,,,,,,,,,,,,,,,,,,,,,109.55608410015702,109.55608410015702,109.55608410015702,109.55608410015702,k,0.05769739951938391,,,003,2022-11-09_14h28.54.803,mini_mfe_online,2022.2.4,60.00239989074478,
half_surp_table1.csv,OLD - 'K' Key,NEW - 'S' Key,s,"In this round, press the 'K' key when the face is OLD and the 'S' key when it is new.

To get ready, rest your right and left index fingers on the 'K' and 'S' keys, then press the 'K' when you are ready to begin.",img/neutralC/CFD-MF-313-002-N.jpg,1,,,,,,,,,0,0,0,0,0,57,57,47,,,,,,,,,,,,,,,,,,,,,,,,,,,,,,,,,,,,,,,,,,,,,,,,,,,,,,,,,,,,109.73110750038177,109.73110750038177,109.73110750038177,109.73110750038177,k,0.08077300060540438,,,003,2022-11-09_14h28.54.803,mini_mfe_online,2022.2.4,60.00239989074478,
half_surp_table1.csv,OLD - 'K' Key,NEW - 'S' Key,s,"In this round, press the 'K' key when the face is OLD and the 'S' key when it is new.

To get ready, rest your right and left index fingers on the 'K' and 'S' keys, then press the 'K' when you are ready to begin.",img/neutralC/CFD-BM-219-141-N.jpg,0,,,,,,,,,0,0,0,0,0,58,58,43,,,,,,,,,,,,,,,,,,,,,,,,,,,,,,,,,,,,,,,,,,,,,,,,,,,,,,,,,,,,109.9346927003935,109.9346927003935,109.9346927003935,109.9346927003935,k,0.06269139982759953,,,003,2022-11-09_14h28.54.803,mini_mfe_online,2022.2.4,60.00239989074478,
half_surp_table1.csv,OLD - 'K' Key,NEW - 'S' Key,s,"In this round, press the 'K' key when the face is OLD and the 'S' key when it is new.

To get ready, rest your right and left index fingers on the 'K' and 'S' keys, then press the 'K' when you are ready to begin.",img/neutralC/CFD-AF-240-206-N.jpg,0,,,,,,,,,0,0,0,0,0,59,59,21,,,,,,,,,,,,,,,,,,,,,,,,,,,,,,,,,,,,,,,,,,,,,,,,,,,,,,,,,,,,110.10755950026214,110.10755950026214,110.10755950026214,110.10755950026214,k,0.08569990005344152,,,003,2022-11-09_14h28.54.803,mini_mfe_online,2022.2.4,60.00239989074478,
half_surp_table1.csv,OLD - 'K' Key,NEW - 'S' Key,s,"In this round, press the 'K' key when the face is OLD and the 'S' key when it is new.

To get ready, rest your right and left index fingers on the 'K' and 'S' keys, then press the 'K' when you are ready to begin.",img/neutralC/CFD-WF-002-004-N.jpg,1,,,,,,,,,0,0,0,0,0,60,60,7,,,,,,,,,,,,,,,,,,,,,,,,,,,,,,,,,,,,,,,,,,,,,,,,,,,,,,,,,,,,110.326361999847,110.326361999847,110.326361999847,110.326361999847,k,0.064075100235641,,,003,2022-11-09_14h28.54.803,mini_mfe_online,2022.2.4,60.00239989074478,
half_surp_table1.csv,OLD - 'K' Key,NEW - 'S' Key,s,"In this round, press the 'K' key when the face is OLD and the 'S' key when it is new.

To get ready, rest your right and left index fingers on the 'K' and 'S' keys, then press the 'K' when you are ready to begin.",img/neutralC/CFD-AF-204-067-N.jpg,1,,,,,,,,,0,0,0,0,0,61,61,50,,,,,,,,,,,,,,,,,,,,,,,,,,,,,,,,,,,,,,,,,,,,,,,,,,,,,,,,,,,,110.49462260026485,110.49462260026485,110.49462260026485,110.49462260026485,k,0.1005961000919342,,,003,2022-11-09_14h28.54.803,mini_mfe_online,2022.2.4,60.00239989074478,
half_surp_table1.csv,OLD - 'K' Key,NEW - 'S' Key,s,"In this round, press the 'K' key when the face is OLD and the 'S' key when it is new.

To get ready, rest your right and left index fingers on the 'K' and 'S' keys, then press the 'K' when you are ready to begin.",img/neutralC/CFD-IF-672-305-N.jpg,0,,,,,,,,,0,0,0,0,0,62,62,16,,,,,,,,,,,,,,,,,,,,,,,,,,,,,,,,,,,,,,,,,,,,,,,,,,,,,,,,,,,,110.72469449974597,110.72469449974597,110.72469449974597,110.72469449974597,k,0.06587640009820461,,,003,2022-11-09_14h28.54.803,mini_mfe_online,2022.2.4,60.00239989074478,
half_surp_table1.csv,OLD - 'K' Key,NEW - 'S' Key,s,"In this round, press the 'K' key when the face is OLD and the 'S' key when it is new.

To get ready, rest your right and left index fingers on the 'K' and 'S' keys, then press the 'K' when you are ready to begin.",img/neutralC/CFD-WM-020-001-N.jpg,0,,,,,,,,,0,0,0,0,0,63,63,68,,,,,,,,,,,,,,,,,,,,,,,,,,,,,,,,,,,,,,,,,,,,,,,,,,,,,,,,,,,,110.89735679980367,110.89735679980367,110.89735679980367,110.89735679980367,k,0.07663420028984547,,,003,2022-11-09_14h28.54.803,mini_mfe_online,2022.2.4,60.00239989074478,
half_surp_table1.csv,OLD - 'K' Key,NEW - 'S' Key,s,"In this round, press the 'K' key when the face is OLD and the 'S' key when it is new.

To get ready, rest your right and left index fingers on the 'K' and 'S' keys, then press the 'K' when you are ready to begin.",img/neutralC/CFD-WM-218-074-N.jpg,0,,,,,,,,,0,0,0,0,0,64,64,51,,,,,,,,,,,,,,,,,,,,,,,,,,,,,,,,,,,,,,,,,,,,,,,,,,,,,,,,,,,,111.10023500025272,111.10023500025272,111.10023500025272,111.10023500025272,s,0.27283480018377304,,,003,2022-11-09_14h28.54.803,mini_mfe_online,2022.2.4,60.00239989074478,
half_surp_table1.csv,OLD - 'K' Key,NEW - 'S' Key,s,"In this round, press the 'K' key when the face is OLD and the 'S' key when it is new.

To get ready, rest your right and left index fingers on the 'K' and 'S' keys, then press the 'K' when you are ready to begin.",img/neutralC/CFD-IF-733-110-N.jpg,1,,,,,,,,,0,0,0,0,0,65,65,33,,,,,,,,,,,,,,,,,,,,,,,,,,,,,,,,,,,,,,,,,,,,,,,,,,,,,,,,,,,,111.49057140015066,111.49057140015066,111.49057140015066,111.49057140015066,s,0.18936260044574738,,,003,2022-11-09_14h28.54.803,mini_mfe_online,2022.2.4,60.00239989074478,
half_surp_table1.csv,OLD - 'K' Key,NEW - 'S' Key,s,"In this round, press the 'K' key when the face is OLD and the 'S' key when it is new.

To get ready, rest your right and left index fingers on the 'K' and 'S' keys, then press the 'K' when you are ready to begin.",img/neutralC/CFD-LM-222-239-N.jpg,0,,,,,,,,,0,0,0,0,0,66,66,11,,,,,,,,,,,,,,,,,,,,,,,,,,,,,,,,,,,,,,,,,,,,,,,,,,,,,,,,,,,,111.79025220032781,111.79025220032781,111.79025220032781,111.79025220032781,s,0.19994580000638962,,,003,2022-11-09_14h28.54.803,mini_mfe_online,2022.2.4,60.00239989074478,
half_surp_table1.csv,OLD - 'K' Key,NEW - 'S' Key,s,"In this round, press the 'K' key when the face is OLD and the 'S' key when it is new.

To get ready, rest your right and left index fingers on the 'K' and 'S' keys, then press the 'K' when you are ready to begin.",img/neutralC/CFD-IM-727-195-N.jpg,1,,,,,,,,,0,0,0,0,0,67,67,66,,,,,,,,,,,,,,,,,,,,,,,,,,,,,,,,,,,,,,,,,,,,,,,,,,,,,,,,,,,,112.09830250032246,112.09830250032246,112.09830250032246,112.09830250032246,s,0.14556240011006594,,,003,2022-11-09_14h28.54.803,mini_mfe_online,2022.2.4,60.00239989074478,
half_surp_table1.csv,OLD - 'K' Key,NEW - 'S' Key,s,"In this round, press the 'K' key when the face is OLD and the 'S' key when it is new.

To get ready, rest your right and left index fingers on the 'K' and 'S' keys, then press the 'K' when you are ready to begin.",img/neutralC/CFD-BF-217-189-N.jpg,0,,,,,,,,,0,0,0,0,0,68,68,39,,,,,,,,,,,,,,,,,,,,,,,,,,,,,,,,,,,,,,,,,,,,,,,,,,,,,,,,,,,,112.36640909966081,112.36640909966081,112.36640909966081,112.36640909966081,s,0.10941810067743063,,,003,2022-11-09_14h28.54.803,mini_mfe_online,2022.2.4,60.00239989074478,
half_surp_table1.csv,OLD - 'K' Key,NEW - 'S' Key,s,"In this round, press the 'K' key when the face is OLD and the 'S' key when it is new.

To get ready, rest your right and left index fingers on the 'K' and 'S' keys, then press the 'K' when you are ready to begin.",img/neutralC/CFD-WM-225-127-N.jpg,0,,,,,,,,,0,0,0,0,0,69,69,71,,,,,,,,,,,,,,,,,,,,,,,,,,,,,,,,,,,,,,,,,,,,,,,,,,,,,,,,,,,,112.61135850008577,112.61135850008577,112.61135850008577,112.61135850008577,s,0.11441989988088608,,,003,2022-11-09_14h28.54.803,mini_mfe_online,2022.2.4,60.00239989074478,
half_surp_table1.csv,OLD - 'K' Key,NEW - 'S' Key,s,"In this round, press the 'K' key when the face is OLD and the 'S' key when it is new.

To get ready, rest your right and left index fingers on the 'K' and 'S' keys, then press the 'K' when you are ready to begin.",img/neutralC/CFD-IM-726-248-N.jpg,0,,,,,,,,,0,0,0,0,0,70,70,8,,,,,,,,,,,,,,,,,,,,,,,,,,,,,,,,,,,,,,,,,,,,,,,,,,,,,,,,,,,,112.85322029981762,112.85322029981762,112.85322029981762,112.85322029981762,k,0.21057159919291735,,,003,2022-11-09_14h28.54.803,mini_mfe_online,2022.2.4,60.00239989074478,
half_surp_table1.csv,OLD - 'K' Key,NEW - 'S' Key,s,"In this round, press the 'K' key when the face is OLD and the 'S' key when it is new.

To get ready, rest your right and left index fingers on the 'K' and 'S' keys, then press the 'K' when you are ready to begin.",img/neutralC/CFD-MM-305-003-N.jpg,1,,,,,,,,,0,0,0,0,0,71,71,36,,,,,,,,,,,,,,,,,,,,,,,,,,,,,,,,,,,,,,,,,,,,,,,,,,,,,,,,,,,,113.1910389997065,113.1910389997065,113.1910389997065,113.1910389997065,k,0.10024309996515512,,,003,2022-11-09_14h28.54.803,mini_mfe_online,2022.2.4,60.00239989074478,
half_surp_table1.csv,OLD - 'K' Key,NEW - 'S' Key,s,"In this round, press the 'K' key when the face is OLD and the 'S' key when it is new.

To get ready, rest your right and left index fingers on the 'K' and 'S' keys, then press the 'K' when you are ready to begin.",,,,,,,,,,,0,0,0,0,,,,,,,,,,,,,,,,,,,,,,,,,,,,,,,,,,,,,,,,,,,,,,,,,,,,,,,,,,,,,,,,,,,,,,,,003,2022-11-09_14h28.54.803,mini_mfe_online,2022.2.4,60.00239989074478,
half_surp_table2.csv,NEW - 'K' Key,OLD - 'S' Key,k,"In this round, press the 'S' key when the face is OLD and the 'K' key when it is new.

To get ready, rest your right and left index fingers on the 'K' and 'S' keys, then press the 'K' when you are ready to begin.",img/neutralC/CFD-WM-213-076-N.jpg,1,,,,,,,,,0,1,1,1,0,0,0,63,,,,,,,,,,,,,,,,,,,,,,,,,,,,,,,,,,,,,,,,,,,,,,,,,,,,,,,,113.34652389958501,113.34652389958501,k,0.13838540017604828,113.64201909955591,113.64201909955591,113.64201909955591,113.64201909955591,k,1.0623514000326395,,,003,2022-11-09_14h28.54.803,mini_mfe_online,2022.2.4,60.00239989074478,
half_surp_table2.csv,NEW - 'K' Key,OLD - 'S' Key,k,"In this round, press the 'S' key when the face is OLD and the 'K' key when it is new.

To get ready, rest your right and left index fingers on the 'K' and 'S' keys, then press the 'K' when you are ready to begin.",img/neutralC/CFD-LM-209-111-N.jpg,0,,,,,,,,,0,1,1,1,0,1,1,68,,,,,,,,,,,,,,,,,,,,,,,,,,,,,,,,,,,,,,,,,,,,,,,,,,,,,,,,,,,,114.82236730027944,114.82236730027944,114.82236730027944,114.82236730027944,k,0.10582270007580519,,,003,2022-11-09_14h28.54.803,mini_mfe_online,2022.2.4,60.00239989074478,
half_surp_table2.csv,NEW - 'K' Key,OLD - 'S' Key,k,"In this round, press the 'S' key when the face is OLD and the 'K' key when it is new.

To get ready, rest your right and left index fingers on the 'K' and 'S' keys, then press the 'K' when you are ready to begin.",img/neutralC/CFD-BF-012-001-N.jpg,0,,,,,,,,,0,1,1,1,0,2,2,10,,,,,,,,,,,,,,,,,,,,,,,,,,,,,,,,,,,,,,,,,,,,,,,,,,,,,,,,,,,,115.04965410009027,115.04965410009027,115.04965410009027,115.04965410009027,k,0.08598390035331249,,,003,2022-11-09_14h28.54.803,mini_mfe_online,2022.2.4,60.00239989074478,
half_surp_table2.csv,NEW - 'K' Key,OLD - 'S' Key,k,"In this round, press the 'S' key when the face is OLD and the 'K' key when it is new.

To get ready, rest your right and left index fingers on the 'K' and 'S' keys, then press the 'K' when you are ready to begin.",img/neutralC/CFD-AM-241-287-N.jpg,0,,,,,,,,,0,1,1,1,0,3,3,61,,,,,,,,,,,,,,,,,,,,,,,,,,,,,,,,,,,,,,,,,,,,,,,,,,,,,,,,,,,,115.23897179961205,115.23897179961205,115.23897179961205,115.23897179961205,k,0.06530820019543171,,,003,2022-11-09_14h28.54.803,mini_mfe_online,2022.2.4,60.00239989074478,
half_surp_table2.csv,NEW - 'K' Key,OLD - 'S' Key,k,"In this round, press the 'S' key when the face is OLD and the 'K' key when it is new.

To get ready, rest your right and left index fingers on the 'K' and 'S' keys, then press the 'K' when you are ready to begin.",img/neutralC/CFD-AF-231-357-N.jpg,1,,,,,,,,,0,1,1,1,0,4,4,9,,,,,,,,,,,,,,,,,,,,,,,,,,,,,,,,,,,,,,,,,,,,,,,,,,,,,,,,,,,,115.4124106997624,115.4124106997624,115.4124106997624,115.4124106997624,k,0.08609929960221052,,,003,2022-11-09_14h28.54.803,mini_mfe_online,2022.2.4,60.00239989074478,
half_surp_table2.csv,NEW - 'K' Key,OLD - 'S' Key,k,"In this round, press the 'S' key when the face is OLD and the 'K' key when it is new.

To get ready, rest your right and left index fingers on the 'K' and 'S' keys, then press the 'K' when you are ready to begin.",img/neutralC/CFD-BM-015-015-N.jpg,1,,,,,,,,,0,1,1,1,0,5,5,66,,,,,,,,,,,,,,,,,,,,,,,,,,,,,,,,,,,,,,,,,,,,,,,,,,,,,,,,,,,,115.62407390028238,115.62407390028238,115.62407390028238,115.62407390028238,k,0.48719089943915606,,,003,2022-11-09_14h28.54.803,mini_mfe_online,2022.2.4,60.00239989074478,
half_surp_table2.csv,NEW - 'K' Key,OLD - 'S' Key,k,"In this round, press the 'S' key when the face is OLD and the 'K' key when it is new.

To get ready, rest your right and left index fingers on the 'K' and 'S' keys, then press the 'K' when you are ready to begin.",img/neutralC/CFD-LM-207-004-N.jpg,1,,,,,,,,,0,1,1,1,0,6,6,42,,,,,,,,,,,,,,,,,,,,,,,,,,,,,,,,,,,,,,,,,,,,,,,,,,,,,,,,,,,,116.23132080025971,116.23132080025971,116.23132080025971,116.23132080025971,s,0.17275580018758774,,,003,2022-11-09_14h28.54.803,mini_mfe_online,2022.2.4,60.00239989074478,
half_surp_table2.csv,NEW - 'K' Key,OLD - 'S' Key,k,"In this round, press the 'S' key when the face is OLD and the 'K' key when it is new.

To get ready, rest your right and left index fingers on the 'K' and 'S' keys, then press the 'K' when you are ready to begin.",img/neutralC/CFD-MF-321-003-N.jpg,0,,,,,,,,,0,1,1,1,0,7,7,59,,,,,,,,,,,,,,,,,,,,,,,,,,,,,,,,,,,,,,,,,,,,,,,,,,,,,,,,,,,,116.51510760001838,116.51510760001838,116.51510760001838,116.51510760001838,k,0.18194840010255575,,,003,2022-11-09_14h28.54.803,mini_mfe_online,2022.2.4,60.00239989074478,
half_surp_table2.csv,NEW - 'K' Key,OLD - 'S' Key,k,"In this round, press the 'S' key when the face is OLD and the 'K' key when it is new.

To get ready, rest your right and left index fingers on the 'K' and 'S' keys, then press the 'K' when you are ready to begin.",img/neutralC/CFD-BF-239-180-N.jpg,0,,,,,,,,,0,1,1,1,0,8,8,50,,,,,,,,,,,,,,,,,,,,,,,,,,,,,,,,,,,,,,,,,,,,,,,,,,,,,,,,,,,,116.80766279995441,116.80766279995441,116.80766279995441,116.80766279995441,s,0.090259600430727,,,003,2022-11-09_14h28.54.803,mini_mfe_online,2022.2.4,60.00239989074478,
half_surp_table2.csv,NEW - 'K' Key,OLD - 'S' Key,k,"In this round, press the 'S' key when the face is OLD and the 'K' key when it is new.

To get ready, rest your right and left index fingers on the 'K' and 'S' keys, then press the 'K' when you are ready to begin.",img/neutralC/CFD-IM-696-001-N.jpg,0,,,,,,,,,0,1,1,1,0,9,9,40,,,,,,,,,,,,,,,,,,,,,,,,,,,,,,,,,,,,,,,,,,,,,,,,,,,,,,,,,,,,117.00961710046977,117.00961710046977,117.00961710046977,117.00961710046977,k,0.13710610009729862,,,003,2022-11-09_14h28.54.803,mini_mfe_online,2022.2.4,60.00239989074478,
half_surp_table2.csv,NEW - 'K' Key,OLD - 'S' Key,k,"In this round, press the 'S' key when the face is OLD and the 'K' key when it is new.

To get ready, rest your right and left index fingers on the 'K' and 'S' keys, then press the 'K' when you are ready to begin.",img/neutralC/CFD-AM-208-143-N.jpg,1,,,,,,,,,0,1,1,1,0,10,10,19,,,,,,,,,,,,,,,,,,,,,,,,,,,,,,,,,,,,,,,,,,,,,,,,,,,,,,,,,,,,117.26088560000062,117.26088560000062,117.26088560000062,117.26088560000062,s,0.04997849930077791,,,003,2022-11-09_14h28.54.803,mini_mfe_online,2022.2.4,60.00239989074478,
half_surp_table2.csv,NEW - 'K' Key,OLD - 'S' Key,k,"In this round, press the 'S' key when the face is OLD and the 'K' key when it is new.

To get ready, rest your right and left index fingers on the 'K' and 'S' keys, then press the 'K' when you are ready to begin.",img/neutralC/CFD-BF-225-192-N.jpg,1,,,,,,,,,0,1,1,1,0,11,11,20,,,,,,,,,,,,,,,,,,,,,,,,,,,,,,,,,,,,,,,,,,,,,,,,,,,,,,,,,,,,117.43488280009478,117.43488280009478,117.43488280009478,117.43488280009478,k,0.055693600326776505,,,003,2022-11-09_14h28.54.803,mini_mfe_online,2022.2.4,60.00239989074478,
half_surp_table2.csv,NEW - 'K' Key,OLD - 'S' Key,k,"In this round, press the 'S' key when the face is OLD and the 'K' key when it is new.

To get ready, rest your right and left index fingers on the 'K' and 'S' keys, then press the 'K' when you are ready to begin.",img/neutralC/CFD-IM-632-097-N.jpg,1,,,,,,,,,0,1,1,1,0,12,12,2,,,,,,,,,,,,,,,,,,,,,,,,,,,,,,,,,,,,,,,,,,,,,,,,,,,,,,,,,,,,117.62267840001732,117.62267840001732,117.62267840001732,117.62267840001732,s,0.03897729981690645,,,003,2022-11-09_14h28.54.803,mini_mfe_online,2022.2.4,60.00239989074478,
half_surp_table2.csv,NEW - 'K' Key,OLD - 'S' Key,k,"In this round, press the 'S' key when the face is OLD and the 'K' key when it is new.

To get ready, rest your right and left index fingers on the 'K' and 'S' keys, then press the 'K' when you are ready to begin.",img/neutralC/CFD-WM-223-056-N.jpg,1,,,,,,,,,0,1,1,1,0,13,13,57,,,,,,,,,,,,,,,,,,,,,,,,,,,,,,,,,,,,,,,,,,,,,,,,,,,,,,,,,,,,117.77777799963951,117.77777799963951,117.77777799963951,117.77777799963951,k,0.04629120044410229,,,003,2022-11-09_14h28.54.803,mini_mfe_online,2022.2.4,60.00239989074478,
half_surp_table2.csv,NEW - 'K' Key,OLD - 'S' Key,k,"In this round, press the 'S' key when the face is OLD and the 'K' key when it is new.

To get ready, rest your right and left index fingers on the 'K' and 'S' keys, then press the 'K' when you are ready to begin.",img/neutralC/CFD-WF-252-159-N.jpg,0,,,,,,,,,0,1,1,1,0,14,14,12,,,,,,,,,,,,,,,,,,,,,,,,,,,,,,,,,,,,,,,,,,,,,,,,,,,,,,,,,,,,117.94696389976889,117.94696389976889,117.94696389976889,117.94696389976889,s,0.03644179925322533,,,003,2022-11-09_14h28.54.803,mini_mfe_online,2022.2.4,60.00239989074478,
half_surp_table2.csv,NEW - 'K' Key,OLD - 'S' Key,k,"In this round, press the 'S' key when the face is OLD and the 'K' key when it is new.

To get ready, rest your right and left index fingers on the 'K' and 'S' keys, then press the 'K' when you are ready to begin.",img/neutralC/CFD-LM-252-076-N.jpg,1,,,,,,,,,0,1,1,1,0,15,15,17,,,,,,,,,,,,,,,,,,,,,,,,,,,,,,,,,,,,,,,,,,,,,,,,,,,,,,,,,,,,118.10650859959424,118.10650859959424,118.10650859959424,118.10650859959424,k,0.054468000307679176,,,003,2022-11-09_14h28.54.803,mini_mfe_online,2022.2.4,60.00239989074478,
half_surp_table2.csv,NEW - 'K' Key,OLD - 'S' Key,k,"In this round, press the 'S' key when the face is OLD and the 'K' key when it is new.

To get ready, rest your right and left index fingers on the 'K' and 'S' keys, then press the 'K' when you are ready to begin.",img/neutralC/CFD-AM-239-147-N.jpg,0,,,,,,,,,0,1,1,1,0,16,16,36,,,,,,,,,,,,,,,,,,,,,,,,,,,,,,,,,,,,,,,,,,,,,,,,,,,,,,,,,,,,118.30217240005732,118.30217240005732,118.30217240005732,118.30217240005732,s,0.039911999367177486,,,003,2022-11-09_14h28.54.803,mini_mfe_online,2022.2.4,60.00239989074478,
half_surp_table2.csv,NEW - 'K' Key,OLD - 'S' Key,k,"In this round, press the 'S' key when the face is OLD and the 'K' key when it is new.

To get ready, rest your right and left index fingers on the 'K' and 'S' keys, then press the 'K' when you are ready to begin.",img/neutralC/CFD-IM-666-372-N.jpg,1,,,,,,,,,0,1,1,1,0,17,17,18,,,,,,,,,,,,,,,,,,,,,,,,,,,,,,,,,,,,,,,,,,,,,,,,,,,,,,,,,,,,118.4716261997819,118.4716261997819,118.4716261997819,118.4716261997819,s,0.16380509920418262,,,003,2022-11-09_14h28.54.803,mini_mfe_online,2022.2.4,60.00239989074478,
half_surp_table2.csv,NEW - 'K' Key,OLD - 'S' Key,k,"In this round, press the 'S' key when the face is OLD and the 'K' key when it is new.

To get ready, rest your right and left index fingers on the 'K' and 'S' keys, then press the 'K' when you are ready to begin.",img/neutralC/CFD-IM-656-273-N.jpg,0,,,,,,,,,0,1,1,1,0,18,18,46,,,,,,,,,,,,,,,,,,,,,,,,,,,,,,,,,,,,,,,,,,,,,,,,,,,,,,,,,,,,118.74928519967943,118.74928519967943,118.74928519967943,118.74928519967943,k,0.08894299995154142,,,003,2022-11-09_14h28.54.803,mini_mfe_online,2022.2.4,60.00239989074478,
half_surp_table2.csv,NEW - 'K' Key,OLD - 'S' Key,k,"In this round, press the 'S' key when the face is OLD and the 'K' key when it is new.

To get ready, rest your right and left index fingers on the 'K' and 'S' keys, then press the 'K' when you are ready to begin.",img/neutralC/CFD-MM-323-053-N.jpg,0,,,,,,,,,0,1,1,1,0,19,19,53,,,,,,,,,,,,,,,,,,,,,,,,,,,,,,,,,,,,,,,,,,,,,,,,,,,,,,,,,,,,118.9488743999973,118.9488743999973,118.9488743999973,118.9488743999973,k,0.11756480019539595,,,003,2022-11-09_14h28.54.803,mini_mfe_online,2022.2.4,60.00239989074478,
half_surp_table2.csv,NEW - 'K' Key,OLD - 'S' Key,k,"In this round, press the 'S' key when the face is OLD and the 'K' key when it is new.

To get ready, rest your right and left index fingers on the 'K' and 'S' keys, then press the 'K' when you are ready to begin.",img/neutralC/CFD-WM-028-003-N.jpg,0,,,,,,,,,0,1,1,1,0,20,20,47,,,,,,,,,,,,,,,,,,,,,,,,,,,,,,,,,,,,,,,,,,,,,,,,,,,,,,,,,,,,119.1885810000822,119.1885810000822,119.1885810000822,119.1885810000822,k,0.13168440014123917,,,003,2022-11-09_14h28.54.803,mini_mfe_online,2022.2.4,60.00239989074478,
half_surp_table2.csv,NEW - 'K' Key,OLD - 'S' Key,k,"In this round, press the 'S' key when the face is OLD and the 'K' key when it is new.

To get ready, rest your right and left index fingers on the 'K' and 'S' keys, then press the 'K' when you are ready to begin.",img/neutralC/CFD-MM-316-156-N.jpg,1,,,,,,,,,0,1,1,1,0,21,21,22,,,,,,,,,,,,,,,,,,,,,,,,,,,,,,,,,,,,,,,,,,,,,,,,,,,,,,,,,,,,119.44163700006902,119.44163700006902,119.44163700006902,119.44163700006902,k,0.12016140017658472,,,003,2022-11-09_14h28.54.803,mini_mfe_online,2022.2.4,60.00239989074478,
half_surp_table2.csv,NEW - 'K' Key,OLD - 'S' Key,k,"In this round, press the 'S' key when the face is OLD and the 'K' key when it is new.

To get ready, rest your right and left index fingers on the 'K' and 'S' keys, then press the 'K' when you are ready to begin.",img/neutralC/CFD-MM-302-002-N.jpg,1,,,,,,,,,0,1,1,1,0,22,22,45,,,,,,,,,,,,,,,,,,,,,,,,,,,,,,,,,,,,,,,,,,,,,,,,,,,,,,,,,,,,119.69920589961112,119.69920589961112,119.69920589961112,119.69920589961112,k,0.09536730032414198,,,003,2022-11-09_14h28.54.803,mini_mfe_online,2022.2.4,60.00239989074478,
half_surp_table2.csv,NEW - 'K' Key,OLD - 'S' Key,k,"In this round, press the 'S' key when the face is OLD and the 'K' key when it is new.

To get ready, rest your right and left index fingers on the 'K' and 'S' keys, then press the 'K' when you are ready to begin.",img/neutralC/CFD-IM-684-008-N.jpg,0,,,,,,,,,0,1,1,1,0,23,23,37,,,,,,,,,,,,,,,,,,,,,,,,,,,,,,,,,,,,,,,,,,,,,,,,,,,,,,,,,,,,119.91075570043176,119.91075570043176,119.91075570043176,119.91075570043176,k,0.08598889969289303,,,003,2022-11-09_14h28.54.803,mini_mfe_online,2022.2.4,60.00239989074478,
half_surp_table2.csv,NEW - 'K' Key,OLD - 'S' Key,k,"In this round, press the 'S' key when the face is OLD and the 'K' key when it is new.

To get ready, rest your right and left index fingers on the 'K' and 'S' keys, then press the 'K' when you are ready to begin.",img/neutralC/CFD-WM-216-061-N.jpg,0,,,,,,,,,0,1,1,1,0,24,24,55,,,,,,,,,,,,,,,,,,,,,,,,,,,,,,,,,,,,,,,,,,,,,,,,,,,,,,,,,,,,120.14426320046186,120.14426320046186,120.14426320046186,120.14426320046186,k,0.08930499944835901,,,003,2022-11-09_14h28.54.803,mini_mfe_online,2022.2.4,60.00239989074478,
half_surp_table2.csv,NEW - 'K' Key,OLD - 'S' Key,k,"In this round, press the 'S' key when the face is OLD and the 'K' key when it is new.

To get ready, rest your right and left index fingers on the 'K' and 'S' keys, then press the 'K' when you are ready to begin.",img/neutralC/CFD-BF-244-231-N.jpg,0,,,,,,,,,0,1,1,1,0,25,25,30,,,,,,,,,,,,,,,,,,,,,,,,,,,,,,,,,,,,,,,,,,,,,,,,,,,,,,,,,,,,120.35818879958242,120.35818879958242,120.35818879958242,120.35818879958242,k,0.11049420014023781,,,003,2022-11-09_14h28.54.803,mini_mfe_online,2022.2.4,60.00239989074478,
half_surp_table2.csv,NEW - 'K' Key,OLD - 'S' Key,k,"In this round, press the 'S' key when the face is OLD and the 'K' key when it is new.

To get ready, rest your right and left index fingers on the 'K' and 'S' keys, then press the 'K' when you are ready to begin.",img/neutralC/CFD-WM-207-048-N.jpg,1,,,,,,,,,0,1,1,1,0,26,26,51,,,,,,,,,,,,,,,,,,,,,,,,,,,,,,,,,,,,,,,,,,,,,,,,,,,,,,,,,,,,120.60208310000598,120.60208310000598,120.60208310000598,120.60208310000598,k,0.10120999999344349,,,003,2022-11-09_14h28.54.803,mini_mfe_online,2022.2.4,60.00239989074478,
half_surp_table2.csv,NEW - 'K' Key,OLD - 'S' Key,k,"In this round, press the 'S' key when the face is OLD and the 'K' key when it is new.

To get ready, rest your right and left index fingers on the 'K' and 'S' keys, then press the 'K' when you are ready to begin.",img/neutralC/CFD-LM-249-001-N.jpg,0,,,,,,,,,0,1,1,1,0,27,27,32,,,,,,,,,,,,,,,,,,,,,,,,,,,,,,,,,,,,,,,,,,,,,,,,,,,,,,,,,,,,120.81656350009143,120.81656350009143,120.81656350009143,120.81656350009143,k,0.2825095998123288,,,003,2022-11-09_14h28.54.803,mini_mfe_online,2022.2.4,60.00239989074478,
half_surp_table2.csv,NEW - 'K' Key,OLD - 'S' Key,k,"In this round, press the 'S' key when the face is OLD and the 'K' key when it is new.

To get ready, rest your right and left index fingers on the 'K' and 'S' keys, then press the 'K' when you are ready to begin.",img/neutralC/CFD-IF-614-107-N.jpg,0,,,,,,,,,0,1,1,1,0,28,28,65,,,,,,,,,,,,,,,,,,,,,,,,,,,,,,,,,,,,,,,,,,,,,,,,,,,,,,,,,,,,121.22053419984877,121.22053419984877,121.22053419984877,121.22053419984877,k,0.17123840004205704,,,003,2022-11-09_14h28.54.803,mini_mfe_online,2022.2.4,60.00239989074478,
half_surp_table2.csv,NEW - 'K' Key,OLD - 'S' Key,k,"In this round, press the 'S' key when the face is OLD and the 'K' key when it is new.

To get ready, rest your right and left index fingers on the 'K' and 'S' keys, then press the 'K' when you are ready to begin.",img/neutralC/CFD-BM-239-136-N.jpg,0,,,,,,,,,0,1,1,1,0,29,29,7,,,,,,,,,,,,,,,,,,,,,,,,,,,,,,,,,,,,,,,,,,,,,,,,,,,,,,,,,,,,121.51513039972633,121.51513039972633,121.51513039972633,121.51513039972633,k,0.22308620065450668,,,003,2022-11-09_14h28.54.803,mini_mfe_online,2022.2.4,60.00239989074478,
half_surp_table2.csv,NEW - 'K' Key,OLD - 'S' Key,k,"In this round, press the 'S' key when the face is OLD and the 'K' key when it is new.

To get ready, rest your right and left index fingers on the 'K' and 'S' keys, then press the 'K' when you are ready to begin.",img/neutralC/CFD-MF-352-054-N.jpg,0,,,,,,,,,0,1,1,1,0,30,30,6,,,,,,,,,,,,,,,,,,,,,,,,,,,,,,,,,,,,,,,,,,,,,,,,,,,,,,,,,,,,121.85082130040973,121.85082130040973,121.85082130040973,121.85082130040973,k,0.20096189994364977,,,003,2022-11-09_14h28.54.803,mini_mfe_online,2022.2.4,60.00239989074478,
half_surp_table2.csv,NEW - 'K' Key,OLD - 'S' Key,k,"In this round, press the 'S' key when the face is OLD and the 'K' key when it is new.

To get ready, rest your right and left index fingers on the 'K' and 'S' keys, then press the 'K' when you are ready to begin.",img/neutralC/CFD-WM-016-001-N.jpg,0,,,,,,,,,0,1,1,1,0,31,31,35,,,,,,,,,,,,,,,,,,,,,,,,,,,,,,,,,,,,,,,,,,,,,,,,,,,,,,,,,,,,122.16270220000297,122.16270220000297,122.16270220000297,122.16270220000297,k,0.21104419976472855,,,003,2022-11-09_14h28.54.803,mini_mfe_online,2022.2.4,60.00239989074478,
half_surp_table2.csv,NEW - 'K' Key,OLD - 'S' Key,k,"In this round, press the 'S' key when the face is OLD and the 'K' key when it is new.

To get ready, rest your right and left index fingers on the 'K' and 'S' keys, then press the 'K' when you are ready to begin.",img/neutralC/CFD-IM-659-359-N.jpg,0,,,,,,,,,0,1,1,1,0,32,32,13,,,,,,,,,,,,,,,,,,,,,,,,,,,,,,,,,,,,,,,,,,,,,,,,,,,,,,,,,,,,122.50284990016371,122.50284990016371,122.50284990016371,122.50284990016371,k,0.1929636998102069,,,003,2022-11-09_14h28.54.803,mini_mfe_online,2022.2.4,60.00239989074478,
half_surp_table2.csv,NEW - 'K' Key,OLD - 'S' Key,k,"In this round, press the 'S' key when the face is OLD and the 'K' key when it is new.

To get ready, rest your right and left index fingers on the 'K' and 'S' keys, then press the 'K' when you are ready to begin.",img/neutralC/CFD-LM-243-075-N.jpg,0,,,,,,,,,0,1,1,1,0,33,33,24,,,,,,,,,,,,,,,,,,,,,,,,,,,,,,,,,,,,,,,,,,,,,,,,,,,,,,,,,,,,122.81169580016285,122.81169580016285,122.81169580016285,122.81169580016285,k,0.16564929950982332,,,003,2022-11-09_14h28.54.803,mini_mfe_online,2022.2.4,60.00239989074478,
half_surp_table2.csv,NEW - 'K' Key,OLD - 'S' Key,k,"In this round, press the 'S' key when the face is OLD and the 'K' key when it is new.

To get ready, rest your right and left index fingers on the 'K' and 'S' keys, then press the 'K' when you are ready to begin.",img/neutralC/CFD-IM-613-169-N.jpg,1,,,,,,,,,0,1,1,1,0,34,34,21,,,,,,,,,,,,,,,,,,,,,,,,,,,,,,,,,,,,,,,,,,,,,,,,,,,,,,,,,,,,123.10961269959807,123.10961269959807,123.10961269959807,123.10961269959807,k,0.11022580042481422,,,003,2022-11-09_14h28.54.803,mini_mfe_online,2022.2.4,60.00239989074478,
half_surp_table2.csv,NEW - 'K' Key,OLD - 'S' Key,k,"In this round, press the 'S' key when the face is OLD and the 'K' key when it is new.

To get ready, rest your right and left index fingers on the 'K' and 'S' keys, then press the 'K' when you are ready to begin.",img/neutralC/CFD-IM-731-223-N.jpg,0,,,,,,,,,0,1,1,1,0,35,35,71,,,,,,,,,,,,,,,,,,,,,,,,,,,,,,,,,,,,,,,,,,,,,,,,,,,,,,,,,,,,123.33620790019631,123.33620790019631,123.33620790019631,123.33620790019631,k,0.16116890031844378,,,003,2022-11-09_14h28.54.803,mini_mfe_online,2022.2.4,60.00239989074478,
half_surp_table2.csv,NEW - 'K' Key,OLD - 'S' Key,k,"In this round, press the 'S' key when the face is OLD and the 'K' key when it is new.

To get ready, rest your right and left index fingers on the 'K' and 'S' keys, then press the 'K' when you are ready to begin.",img/neutralC/CFD-BF-245-178-N.jpg,0,,,,,,,,,0,1,1,1,0,36,36,8,,,,,,,,,,,,,,,,,,,,,,,,,,,,,,,,,,,,,,,,,,,,,,,,,,,,,,,,,,,,123.61824900005013,123.61824900005013,123.61824900005013,123.61824900005013,k,0.21214279998093843,,,003,2022-11-09_14h28.54.803,mini_mfe_online,2022.2.4,60.00239989074478,
half_surp_table2.csv,NEW - 'K' Key,OLD - 'S' Key,k,"In this round, press the 'S' key when the face is OLD and the 'K' key when it is new.

To get ready, rest your right and left index fingers on the 'K' and 'S' keys, then press the 'K' when you are ready to begin.",img/neutralC/CFD-IM-679-069-N.jpg,1,,,,,,,,,0,1,1,1,0,37,37,41,,,,,,,,,,,,,,,,,,,,,,,,,,,,,,,,,,,,,,,,,,,,,,,,,,,,,,,,,,,,123.98624479956925,123.98624479956925,123.98624479956925,123.98624479956925,k,0.10943949967622757,,,003,2022-11-09_14h28.54.803,mini_mfe_online,2022.2.4,60.00239989074478,
half_surp_table2.csv,NEW - 'K' Key,OLD - 'S' Key,k,"In this round, press the 'S' key when the face is OLD and the 'K' key when it is new.

To get ready, rest your right and left index fingers on the 'K' and 'S' keys, then press the 'K' when you are ready to begin.",img/neutralC/CFD-AF-226-251-N.jpg,1,,,,,,,,,0,1,1,1,0,38,38,38,,,,,,,,,,,,,,,,,,,,,,,,,,,,,,,,,,,,,,,,,,,,,,,,,,,,,,,,,,,,124.21456350013614,124.21456350013614,124.21456350013614,124.21456350013614,k,0.16137950029224157,,,003,2022-11-09_14h28.54.803,mini_mfe_online,2022.2.4,60.00239989074478,
half_surp_table2.csv,NEW - 'K' Key,OLD - 'S' Key,k,"In this round, press the 'S' key when the face is OLD and the 'K' key when it is new.

To get ready, rest your right and left index fingers on the 'K' and 'S' keys, then press the 'K' when you are ready to begin.",img/neutralC/CFD-IF-705-196-N.jpg,0,,,,,,,,,0,1,1,1,0,39,39,1,,,,,,,,,,,,,,,,,,,,,,,,,,,,,,,,,,,,,,,,,,,,,,,,,,,,,,,,,,,,124.50869289971888,124.50869289971888,124.50869289971888,124.50869289971888,k,0.14812489971518517,,,003,2022-11-09_14h28.54.803,mini_mfe_online,2022.2.4,60.00239989074478,
half_surp_table2.csv,NEW - 'K' Key,OLD - 'S' Key,k,"In this round, press the 'S' key when the face is OLD and the 'K' key when it is new.

To get ready, rest your right and left index fingers on the 'K' and 'S' keys, then press the 'K' when you are ready to begin.",img/neutralC/CFD-BM-023-029-N.jpg,1,,,,,,,,,0,1,1,1,0,40,40,4,,,,,,,,,,,,,,,,,,,,,,,,,,,,,,,,,,,,,,,,,,,,,,,,,,,,,,,,,,,,124.78217060025781,124.78217060025781,124.78217060025781,124.78217060025781,k,0.167093800380826,,,003,2022-11-09_14h28.54.803,mini_mfe_online,2022.2.4,60.00239989074478,
half_surp_table2.csv,NEW - 'K' Key,OLD - 'S' Key,k,"In this round, press the 'S' key when the face is OLD and the 'K' key when it is new.

To get ready, rest your right and left index fingers on the 'K' and 'S' keys, then press the 'K' when you are ready to begin.",img/neutralC/CFD-MF-348-018-N.jpg,0,,,,,,,,,0,1,1,1,0,41,41,62,,,,,,,,,,,,,,,,,,,,,,,,,,,,,,,,,,,,,,,,,,,,,,,,,,,,,,,,,,,,125.0721779000014,125.0721779000014,125.0721779000014,125.0721779000014,k,0.17154690064489841,,,003,2022-11-09_14h28.54.803,mini_mfe_online,2022.2.4,60.00239989074478,
half_surp_table2.csv,NEW - 'K' Key,OLD - 'S' Key,k,"In this round, press the 'S' key when the face is OLD and the 'K' key when it is new.

To get ready, rest your right and left index fingers on the 'K' and 'S' keys, then press the 'K' when you are ready to begin.",img/neutralC/CFD-WM-222-057-N.jpg,0,,,,,,,,,0,1,1,1,0,42,42,48,,,,,,,,,,,,,,,,,,,,,,,,,,,,,,,,,,,,,,,,,,,,,,,,,,,,,,,,,,,,125.37672109995037,125.37672109995037,125.37672109995037,125.37672109995037,k,0.25377259962260723,,,003,2022-11-09_14h28.54.803,mini_mfe_online,2022.2.4,60.00239989074478,
half_surp_table2.csv,NEW - 'K' Key,OLD - 'S' Key,k,"In this round, press the 'S' key when the face is OLD and the 'K' key when it is new.

To get ready, rest your right and left index fingers on the 'K' and 'S' keys, then press the 'K' when you are ready to begin.",img/neutralC/CFD-WM-228-065-N.jpg,0,,,,,,,,,0,1,1,1,0,43,43,26,,,,,,,,,,,,,,,,,,,,,,,,,,,,,,,,,,,,,,,,,,,,,,,,,,,,,,,,,,,,125.74925499968231,125.74925499968231,125.74925499968231,125.74925499968231,k,0.1825128998607397,,,003,2022-11-09_14h28.54.803,mini_mfe_online,2022.2.4,60.00239989074478,
half_surp_table2.csv,NEW - 'K' Key,OLD - 'S' Key,k,"In this round, press the 'S' key when the face is OLD and the 'K' key when it is new.

To get ready, rest your right and left index fingers on the 'K' and 'S' keys, then press the 'K' when you are ready to begin.",img/neutralC/CFD-IM-661-254-N.jpg,0,,,,,,,,,0,1,1,1,0,44,44,56,,,,,,,,,,,,,,,,,,,,,,,,,,,,,,,,,,,,,,,,,,,,,,,,,,,,,,,,,,,,126.0432002004236,126.0432002004236,126.0432002004236,126.0432002004236,k,0.2767527997493744,,,003,2022-11-09_14h28.54.803,mini_mfe_online,2022.2.4,60.00239989074478,
half_surp_table2.csv,NEW - 'K' Key,OLD - 'S' Key,k,"In this round, press the 'S' key when the face is OLD and the 'K' key when it is new.

To get ready, rest your right and left index fingers on the 'K' and 'S' keys, then press the 'K' when you are ready to begin.",img/neutralC/CFD-WF-245-084-N.jpg,0,,,,,,,,,0,1,1,1,0,45,45,52,,,,,,,,,,,,,,,,,,,,,,,,,,,,,,,,,,,,,,,,,,,,,,,,,,,,,,,,,,,,126.43896319996566,126.43896319996566,126.43896319996566,126.43896319996566,k,0.17842240072786808,,,003,2022-11-09_14h28.54.803,mini_mfe_online,2022.2.4,60.00239989074478,
half_surp_table2.csv,NEW - 'K' Key,OLD - 'S' Key,k,"In this round, press the 'S' key when the face is OLD and the 'K' key when it is new.

To get ready, rest your right and left index fingers on the 'K' and 'S' keys, then press the 'K' when you are ready to begin.",img/neutralC/CFD-AF-253-130-N.jpg,0,,,,,,,,,0,1,1,1,0,46,46,58,,,,,,,,,,,,,,,,,,,,,,,,,,,,,,,,,,,,,,,,,,,,,,,,,,,,,,,,,,,,126.72674010042101,126.72674010042101,126.72674010042101,126.72674010042101,k,0.34423850011080503,,,003,2022-11-09_14h28.54.803,mini_mfe_online,2022.2.4,60.00239989074478,
half_surp_table2.csv,NEW - 'K' Key,OLD - 'S' Key,k,"In this round, press the 'S' key when the face is OLD and the 'K' key when it is new.

To get ready, rest your right and left index fingers on the 'K' and 'S' keys, then press the 'K' when you are ready to begin.",img/neutralC/CFD-IM-719-221-N.jpg,1,,,,,,,,,0,1,1,1,0,47,47,34,,,,,,,,,,,,,,,,,,,,,,,,,,,,,,,,,,,,,,,,,,,,,,,,,,,,,,,,,,,,127.17665159981698,127.17665159981698,127.17665159981698,127.17665159981698,k,0.2427716003730893,,,003,2022-11-09_14h28.54.803,mini_mfe_online,2022.2.4,60.00239989074478,
half_surp_table2.csv,NEW - 'K' Key,OLD - 'S' Key,k,"In this round, press the 'S' key when the face is OLD and the 'K' key when it is new.

To get ready, rest your right and left index fingers on the 'K' and 'S' keys, then press the 'K' when you are ready to begin.",img/neutralC/CFD-BM-010-003-N.jpg,1,,,,,,,,,0,1,1,1,0,48,48,15,,,,,,,,,,,,,,,,,,,,,,,,,,,,,,,,,,,,,,,,,,,,,,,,,,,,,,,,,,,,127.52350480016321,127.52350480016321,127.52350480016321,127.52350480016321,k,0.302985199727118,,,003,2022-11-09_14h28.54.803,mini_mfe_online,2022.2.4,60.00239989074478,
half_surp_table2.csv,NEW - 'K' Key,OLD - 'S' Key,k,"In this round, press the 'S' key when the face is OLD and the 'K' key when it is new.

To get ready, rest your right and left index fingers on the 'K' and 'S' keys, then press the 'K' when you are ready to begin.",img/neutralC/CFD-LM-219-295-N.jpg,0,,,,,,,,,0,1,1,1,0,49,49,14,,,,,,,,,,,,,,,,,,,,,,,,,,,,,,,,,,,,,,,,,,,,,,,,,,,,,,,,,,,,127.93371319957078,127.93371319957078,127.93371319957078,127.93371319957078,k,0.24592299945652485,,,003,2022-11-09_14h28.54.803,mini_mfe_online,2022.2.4,60.00239989074478,
half_surp_table2.csv,NEW - 'K' Key,OLD - 'S' Key,k,"In this round, press the 'S' key when the face is OLD and the 'K' key when it is new.

To get ready, rest your right and left index fingers on the 'K' and 'S' keys, then press the 'K' when you are ready to begin.",img/neutralC/CFD-BF-247-179-N.jpg,1,,,,,,,,,0,1,1,1,0,50,50,5,,,,,,,,,,,,,,,,,,,,,,,,,,,,,,,,,,,,,,,,,,,,,,,,,,,,,,,,,,,,128.29937119968235,128.29937119968235,128.29937119968235,128.29937119968235,k,0.24879439920186996,,,003,2022-11-09_14h28.54.803,mini_mfe_online,2022.2.4,60.00239989074478,
half_surp_table2.csv,NEW - 'K' Key,OLD - 'S' Key,k,"In this round, press the 'S' key when the face is OLD and the 'K' key when it is new.

To get ready, rest your right and left index fingers on the 'K' and 'S' keys, then press the 'K' when you are ready to begin.",img/neutralC/CFD-AF-206-079-N.jpg,0,,,,,,,,,0,1,1,1,0,51,51,60,,,,,,,,,,,,,,,,,,,,,,,,,,,,,,,,,,,,,,,,,,,,,,,,,,,,,,,,,,,,128.6606585998088,128.6606585998088,128.6606585998088,128.6606585998088,k,0.24349830020219088,,,003,2022-11-09_14h28.54.803,mini_mfe_online,2022.2.4,60.00239989074478,
half_surp_table2.csv,NEW - 'K' Key,OLD - 'S' Key,k,"In this round, press the 'S' key when the face is OLD and the 'K' key when it is new.

To get ready, rest your right and left index fingers on the 'K' and 'S' keys, then press the 'K' when you are ready to begin.",img/neutralC/CFD-BF-237-172-N.jpg,0,,,,,,,,,0,1,1,1,0,52,52,29,,,,,,,,,,,,,,,,,,,,,,,,,,,,,,,,,,,,,,,,,,,,,,,,,,,,,,,,,,,,129.00971200037748,129.00971200037748,129.00971200037748,129.00971200037748,k,0.1836602995172143,,,003,2022-11-09_14h28.54.803,mini_mfe_online,2022.2.4,60.00239989074478,
half_surp_table2.csv,NEW - 'K' Key,OLD - 'S' Key,k,"In this round, press the 'S' key when the face is OLD and the 'K' key when it is new.

To get ready, rest your right and left index fingers on the 'K' and 'S' keys, then press the 'K' when you are ready to begin.",img/neutralC/CFD-BF-226-119-N.jpg,0,,,,,,,,,0,1,1,1,0,53,53,54,,,,,,,,,,,,,,,,,,,,,,,,,,,,,,,,,,,,,,,,,,,,,,,,,,,,,,,,,,,,129.31425310019404,129.31425310019404,129.31425310019404,129.31425310019404,k,0.16247790027409792,,,003,2022-11-09_14h28.54.803,mini_mfe_online,2022.2.4,60.00239989074478,
half_surp_table2.csv,NEW - 'K' Key,OLD - 'S' Key,k,"In this round, press the 'S' key when the face is OLD and the 'K' key when it is new.

To get ready, rest your right and left index fingers on the 'K' and 'S' keys, then press the 'K' when you are ready to begin.",img/neutralC/CFD-BM-046-006-N.jpg,1,,,,,,,,,0,1,1,1,0,54,54,16,,,,,,,,,,,,,,,,,,,,,,,,,,,,,,,,,,,,,,,,,,,,,,,,,,,,,,,,,,,,129.59981970023364,129.59981970023364,129.59981970023364,129.59981970023364,k,0.23338289931416512,,,003,2022-11-09_14h28.54.803,mini_mfe_online,2022.2.4,60.00239989074478,
half_surp_table2.csv,NEW - 'K' Key,OLD - 'S' Key,k,"In this round, press the 'S' key when the face is OLD and the 'K' key when it is new.

To get ready, rest your right and left index fingers on the 'K' and 'S' keys, then press the 'K' when you are ready to begin.",img/neutralC/CFD-LM-218-183-N.jpg,1,,,,,,,,,0,1,1,1,0,55,55,49,,,,,,,,,,,,,,,,,,,,,,,,,,,,,,,,,,,,,,,,,,,,,,,,,,,,,,,,,,,,129.93542470037937,129.93542470037937,129.93542470037937,129.93542470037937,k,0.1788841001689434,,,003,2022-11-09_14h28.54.803,mini_mfe_online,2022.2.4,60.00239989074478,
half_surp_table2.csv,NEW - 'K' Key,OLD - 'S' Key,k,"In this round, press the 'S' key when the face is OLD and the 'K' key when it is new.

To get ready, rest your right and left index fingers on the 'K' and 'S' keys, then press the 'K' when you are ready to begin.",img/neutralC/CFD-MM-315-013-N.jpg,0,,,,,,,,,0,1,1,1,0,56,56,43,,,,,,,,,,,,,,,,,,,,,,,,,,,,,,,,,,,,,,,,,,,,,,,,,,,,,,,,,,,,130.22699929960072,130.22699929960072,130.22699929960072,130.22699929960072,k,0.1695117000490427,,,003,2022-11-09_14h28.54.803,mini_mfe_online,2022.2.4,60.00239989074478,
half_surp_table2.csv,NEW - 'K' Key,OLD - 'S' Key,k,"In this round, press the 'S' key when the face is OLD and the 'K' key when it is new.

To get ready, rest your right and left index fingers on the 'K' and 'S' keys, then press the 'K' when you are ready to begin.",img/neutralC/CFD-MF-339-002-N.jpg,0,,,,,,,,,0,1,1,1,0,57,57,25,,,,,,,,,,,,,,,,,,,,,,,,,,,,,,,,,,,,,,,,,,,,,,,,,,,,,,,,,,,,130.52566790021956,130.52566790021956,130.52566790021956,130.52566790021956,k,0.15670530032366514,,,003,2022-11-09_14h28.54.803,mini_mfe_online,2022.2.4,60.00239989074478,
half_surp_table2.csv,NEW - 'K' Key,OLD - 'S' Key,k,"In this round, press the 'S' key when the face is OLD and the 'K' key when it is new.

To get ready, rest your right and left index fingers on the 'K' and 'S' keys, then press the 'K' when you are ready to begin.",img/neutralC/CFD-WF-238-023-N.jpg,0,,,,,,,,,0,1,1,1,0,58,58,69,,,,,,,,,,,,,,,,,,,,,,,,,,,,,,,,,,,,,,,,,,,,,,,,,,,,,,,,,,,,130.8207387002185,130.8207387002185,130.8207387002185,130.8207387002185,k,0.18191790021955967,,,003,2022-11-09_14h28.54.803,mini_mfe_online,2022.2.4,60.00239989074478,
half_surp_table2.csv,NEW - 'K' Key,OLD - 'S' Key,k,"In this round, press the 'S' key when the face is OLD and the 'K' key when it is new.

To get ready, rest your right and left index fingers on the 'K' and 'S' keys, then press the 'K' when you are ready to begin.",img/neutralC/CFD-MF-319-016-N.jpg,0,,,,,,,,,0,1,1,1,0,59,59,3,,,,,,,,,,,,,,,,,,,,,,,,,,,,,,,,,,,,,,,,,,,,,,,,,,,,,,,,,,,,131.14550140034407,131.14550140034407,131.14550140034407,131.14550140034407,k,0.14441800024360418,,,003,2022-11-09_14h28.54.803,mini_mfe_online,2022.2.4,60.00239989074478,
half_surp_table2.csv,NEW - 'K' Key,OLD - 'S' Key,k,"In this round, press the 'S' key when the face is OLD and the 'K' key when it is new.

To get ready, rest your right and left index fingers on the 'K' and 'S' keys, then press the 'K' when you are ready to begin.",img/neutralC/CFD-IM-698-011-N.jpg,0,,,,,,,,,0,1,1,1,0,60,60,28,,,,,,,,,,,,,,,,,,,,,,,,,,,,,,,,,,,,,,,,,,,,,,,,,,,,,,,,,,,,131.4153428003192,131.4153428003192,131.4153428003192,131.4153428003192,k,0.18471840023994446,,,003,2022-11-09_14h28.54.803,mini_mfe_online,2022.2.4,60.00239989074478,
half_surp_table2.csv,NEW - 'K' Key,OLD - 'S' Key,k,"In this round, press the 'S' key when the face is OLD and the 'K' key when it is new.

To get ready, rest your right and left index fingers on the 'K' and 'S' keys, then press the 'K' when you are ready to begin.",img/neutralC/CFD-MM-319-052-N.jpg,0,,,,,,,,,0,1,1,1,0,61,61,67,,,,,,,,,,,,,,,,,,,,,,,,,,,,,,,,,,,,,,,,,,,,,,,,,,,,,,,,,,,,131.71680030040443,131.71680030040443,131.71680030040443,131.71680030040443,k,0.2416914002969861,,,003,2022-11-09_14h28.54.803,mini_mfe_online,2022.2.4,60.00239989074478,
half_surp_table2.csv,NEW - 'K' Key,OLD - 'S' Key,k,"In this round, press the 'S' key when the face is OLD and the 'K' key when it is new.

To get ready, rest your right and left index fingers on the 'K' and 'S' keys, then press the 'K' when you are ready to begin.",img/neutralC/CFD-IF-634-382-N.jpg,0,,,,,,,,,0,1,1,1,0,62,62,27,,,,,,,,,,,,,,,,,,,,,,,,,,,,,,,,,,,,,,,,,,,,,,,,,,,,,,,,,,,,132.12682879995555,132.12682879995555,132.12682879995555,132.12682879995555,k,0.11698579974472523,,,003,2022-11-09_14h28.54.803,mini_mfe_online,2022.2.4,60.00239989074478,
half_surp_table2.csv,NEW - 'K' Key,OLD - 'S' Key,k,"In this round, press the 'S' key when the face is OLD and the 'K' key when it is new.

To get ready, rest your right and left index fingers on the 'K' and 'S' keys, then press the 'K' when you are ready to begin.",img/neutralC/CFD-MF-356-017-N.jpg,0,,,,,,,,,0,1,1,1,0,63,63,31,,,,,,,,,,,,,,,,,,,,,,,,,,,,,,,,,,,,,,,,,,,,,,,,,,,,,,,,,,,,132.3707414995879,132.3707414995879,132.3707414995879,132.3707414995879,k,0.20638929959386587,,,003,2022-11-09_14h28.54.803,mini_mfe_online,2022.2.4,60.00239989074478,
half_surp_table2.csv,NEW - 'K' Key,OLD - 'S' Key,k,"In this round, press the 'S' key when the face is OLD and the 'K' key when it is new.

To get ready, rest your right and left index fingers on the 'K' and 'S' keys, then press the 'K' when you are ready to begin.",img/neutralC/CFD-MF-358-001-N.jpg,1,,,,,,,,,0,1,1,1,0,64,64,39,,,,,,,,,,,,,,,,,,,,,,,,,,,,,,,,,,,,,,,,,,,,,,,,,,,,,,,,,,,,132.69789069984108,132.69789069984108,132.69789069984108,132.69789069984108,k,0.20095090009272099,,,003,2022-11-09_14h28.54.803,mini_mfe_online,2022.2.4,60.00239989074478,
half_surp_table2.csv,NEW - 'K' Key,OLD - 'S' Key,k,"In this round, press the 'S' key when the face is OLD and the 'K' key when it is new.

To get ready, rest your right and left index fingers on the 'K' and 'S' keys, then press the 'K' when you are ready to begin.",img/neutralC/CFD-MF-343-001-N.jpg,1,,,,,,,,,0,1,1,1,0,65,65,70,,,,,,,,,,,,,,,,,,,,,,,,,,,,,,,,,,,,,,,,,,,,,,,,,,,,,,,,,,,,133.00901030004025,133.00901030004025,133.00901030004025,133.00901030004025,k,0.20762040000408888,,,003,2022-11-09_14h28.54.803,mini_mfe_online,2022.2.4,60.00239989074478,
half_surp_table2.csv,NEW - 'K' Key,OLD - 'S' Key,k,"In this round, press the 'S' key when the face is OLD and the 'K' key when it is new.

To get ready, rest your right and left index fingers on the 'K' and 'S' keys, then press the 'K' when you are ready to begin.",img/neutralC/CFD-WM-215-041-N.jpg,1,,,,,,,,,0,1,1,1,0,66,66,11,,,,,,,,,,,,,,,,,,,,,,,,,,,,,,,,,,,,,,,,,,,,,,,,,,,,,,,,,,,,133.32909960020334,133.32909960020334,133.32909960020334,133.32909960020334,k,0.21015689987689257,,,003,2022-11-09_14h28.54.803,mini_mfe_online,2022.2.4,60.00239989074478,
half_surp_table2.csv,NEW - 'K' Key,OLD - 'S' Key,k,"In this round, press the 'S' key when the face is OLD and the 'K' key when it is new.

To get ready, rest your right and left index fingers on the 'K' and 'S' keys, then press the 'K' when you are ready to begin.",img/neutralC/CFD-BM-218-132-N.jpg,0,,,,,,,,,0,1,1,1,0,67,67,23,,,,,,,,,,,,,,,,,,,,,,,,,,,,,,,,,,,,,,,,,,,,,,,,,,,,,,,,,,,,133.65979699976742,133.65979699976742,133.65979699976742,133.65979699976742,k,0.205370900221169,,,003,2022-11-09_14h28.54.803,mini_mfe_online,2022.2.4,60.00239989074478,
half_surp_table2.csv,NEW - 'K' Key,OLD - 'S' Key,k,"In this round, press the 'S' key when the face is OLD and the 'K' key when it is new.

To get ready, rest your right and left index fingers on the 'K' and 'S' keys, then press the 'K' when you are ready to begin.",img/neutralC/CFD-AF-228-173-N.jpg,0,,,,,,,,,0,1,1,1,0,68,68,64,,,,,,,,,,,,,,,,,,,,,,,,,,,,,,,,,,,,,,,,,,,,,,,,,,,,,,,,,,,,133.97000220045447,133.97000220045447,133.97000220045447,133.97000220045447,k,0.22042640019208193,,,003,2022-11-09_14h28.54.803,mini_mfe_online,2022.2.4,60.00239989074478,
half_surp_table2.csv,NEW - 'K' Key,OLD - 'S' Key,k,"In this round, press the 'S' key when the face is OLD and the 'K' key when it is new.

To get ready, rest your right and left index fingers on the 'K' and 'S' keys, then press the 'K' when you are ready to begin.",img/neutralC/CFD-BF-051-035-N.jpg,1,,,,,,,,,0,1,1,1,0,69,69,0,,,,,,,,,,,,,,,,,,,,,,,,,,,,,,,,,,,,,,,,,,,,,,,,,,,,,,,,,,,,134.32084420043975,134.32084420043975,134.32084420043975,134.32084420043975,k,0.17170209996402264,,,003,2022-11-09_14h28.54.803,mini_mfe_online,2022.2.4,60.00239989074478,
half_surp_table2.csv,NEW - 'K' Key,OLD - 'S' Key,k,"In this round, press the 'S' key when the face is OLD and the 'K' key when it is new.

To get ready, rest your right and left index fingers on the 'K' and 'S' keys, then press the 'K' when you are ready to begin.",img/neutralC/CFD-WM-001-014-N.jpg,1,,,,,,,,,0,1,1,1,0,70,70,33,,,,,,,,,,,,,,,,,,,,,,,,,,,,,,,,,,,,,,,,,,,,,,,,,,,,,,,,,,,,134.6206671996042,134.6206671996042,134.6206671996042,134.6206671996042,k,0.23482180014252663,,,003,2022-11-09_14h28.54.803,mini_mfe_online,2022.2.4,60.00239989074478,
half_surp_table2.csv,NEW - 'K' Key,OLD - 'S' Key,k,"In this round, press the 'S' key when the face is OLD and the 'K' key when it is new.

To get ready, rest your right and left index fingers on the 'K' and 'S' keys, then press the 'K' when you are ready to begin.",img/neutralC/CFD-BM-005-003-N.jpg,0,,,,,,,,,0,1,1,1,0,71,71,44,,,,,,,,,,,,,,,,,,,,,,,,,,,,,,,,,,,,,,,,,,,,,,,,,,,,,,,,,,,,134.9654513001442,134.9654513001442,134.9654513001442,134.9654513001442,k,0.1532424995675683,,,003,2022-11-09_14h28.54.803,mini_mfe_online,2022.2.4,60.00239989074478,
half_surp_table2.csv,NEW - 'K' Key,OLD - 'S' Key,k,"In this round, press the 'S' key when the face is OLD and the 'K' key when it is new.

To get ready, rest your right and left index fingers on the 'K' and 'S' keys, then press the 'K' when you are ready to begin.",,,,,,,,,,,0,1,1,1,,,,,,,,,,,,,,,,,,,,,,,,,,,,,,,,,,,,,,,,,,,,,,,,,,,,,,,,,,,,,,,,,,,,,,,,003,2022-11-09_14h28.54.803,mini_mfe_online,2022.2.4,60.00239989074478,
half_surp_table3.csv,OLD - 'K' Key,NEW - 'S' Key,s,"In this round, press the 'K' key when the face is OLD and the 'S' key when it is new.

To get ready, rest your right and left index fingers on the 'K' and 'S' keys, then press the 'K' when you are ready to begin.",img/neutralC/CFD-IM-699-002-N.jpg,0,,,,,,,,,0,2,2,2,0,0,0,35,,,,,,,,,,,,,,,,,,,,,,,,,,,,,,,,,,,,,,,,,,,,,,,,,,,,,,,,135.13637250009924,135.13637250009924,k,3.3830947997048497,138.6960559003055,138.6960559003055,138.6960559003055,138.6960559003055,k,1.6558285998180509,,,003,2022-11-09_14h28.54.803,mini_mfe_online,2022.2.4,60.00239989074478,
half_surp_table3.csv,OLD - 'K' Key,NEW - 'S' Key,s,"In this round, press the 'K' key when the face is OLD and the 'S' key when it is new.

To get ready, rest your right and left index fingers on the 'K' and 'S' keys, then press the 'K' when you are ready to begin.",img/neutralC/CFD-WF-025-019-N.jpg,0,,,,,,,,,0,2,2,2,0,1,1,67,,,,,,,,,,,,,,,,,,,,,,,,,,,,,,,,,,,,,,,,,,,,,,,,,,,,,,,,,,,,140.46648569963872,140.46648569963872,140.46648569963872,140.46648569963872,k,0.4437265992164612,,,003,2022-11-09_14h28.54.803,mini_mfe_online,2022.2.4,60.00239989074478,
half_surp_table3.csv,OLD - 'K' Key,NEW - 'S' Key,s,"In this round, press the 'K' key when the face is OLD and the 'S' key when it is new.

To get ready, rest your right and left index fingers on the 'K' and 'S' keys, then press the 'K' when you are ready to begin.",img/neutralC/CFD-MM-303-002-N.jpg,1,,,,,,,,,0,2,2,2,0,2,2,1,,,,,,,,,,,,,,,,,,,,,,,,,,,,,,,,,,,,,,,,,,,,,,,,,,,,,,,,,,,,141.02786920033395,141.02786920033395,141.02786920033395,141.02786920033395,k,0.33327579963952303,,,003,2022-11-09_14h28.54.803,mini_mfe_online,2022.2.4,60.00239989074478,
half_surp_table3.csv,OLD - 'K' Key,NEW - 'S' Key,s,"In this round, press the 'K' key when the face is OLD and the 'S' key when it is new.

To get ready, rest your right and left index fingers on the 'K' and 'S' keys, then press the 'K' when you are ready to begin.",img/neutralC/CFD-BM-209-088-N.jpg,0,,,,,,,,,0,2,2,2,0,3,3,6,,,,,,,,,,,,,,,,,,,,,,,,,,,,,,,,,,,,,,,,,,,,,,,,,,,,,,,,,,,,141.48487490043044,141.48487490043044,141.48487490043044,141.48487490043044,k,0.21599050052464008,,,003,2022-11-09_14h28.54.803,mini_mfe_online,2022.2.4,60.00239989074478,
half_surp_table3.csv,OLD - 'K' Key,NEW - 'S' Key,s,"In this round, press the 'K' key when the face is OLD and the 'S' key when it is new.

To get ready, rest your right and left index fingers on the 'K' and 'S' keys, then press the 'K' when you are ready to begin.",img/neutralC/CFD-IM-675-015-N.jpg,0,,,,,,,,,0,2,2,2,0,4,4,9,,,,,,,,,,,,,,,,,,,,,,,,,,,,,,,,,,,,,,,,,,,,,,,,,,,,,,,,,,,,141.8096772003919,141.8096772003919,141.8096772003919,141.8096772003919,k,0.1470480002462864,,,003,2022-11-09_14h28.54.803,mini_mfe_online,2022.2.4,60.00239989074478,
half_surp_table3.csv,OLD - 'K' Key,NEW - 'S' Key,s,"In this round, press the 'K' key when the face is OLD and the 'S' key when it is new.

To get ready, rest your right and left index fingers on the 'K' and 'S' keys, then press the 'K' when you are ready to begin.",img/neutralC/CFD-IF-737-104-N.jpg,0,,,,,,,,,0,2,2,2,0,5,5,7,,,,,,,,,,,,,,,,,,,,,,,,,,,,,,,,,,,,,,,,,,,,,,,,,,,,,,,,,,,,142.07650560047477,142.07650560047477,142.07650560047477,142.07650560047477,k,0.12129409983754158,,,003,2022-11-09_14h28.54.803,mini_mfe_online,2022.2.4,60.00239989074478,
half_surp_table3.csv,OLD - 'K' Key,NEW - 'S' Key,s,"In this round, press the 'K' key when the face is OLD and the 'S' key when it is new.

To get ready, rest your right and left index fingers on the 'K' and 'S' keys, then press the 'K' when you are ready to begin.",img/neutralC/CFD-AF-241-141-N.jpg,0,,,,,,,,,0,2,2,2,0,6,6,36,,,,,,,,,,,,,,,,,,,,,,,,,,,,,,,,,,,,,,,,,,,,,,,,,,,,,,,,,,,,142.323954699561,142.323954699561,142.323954699561,142.323954699561,k,0.09031850006431341,,,003,2022-11-09_14h28.54.803,mini_mfe_online,2022.2.4,60.00239989074478,
half_surp_table3.csv,OLD - 'K' Key,NEW - 'S' Key,s,"In this round, press the 'K' key when the face is OLD and the 'S' key when it is new.

To get ready, rest your right and left index fingers on the 'K' and 'S' keys, then press the 'K' when you are ready to begin.",img/neutralC/CFD-LM-210-156-N.jpg,1,,,,,,,,,0,2,2,2,0,7,7,21,,,,,,,,,,,,,,,,,,,,,,,,,,,,,,,,,,,,,,,,,,,,,,,,,,,,,,,,,,,,142.53184560034424,142.53184560034424,142.53184560034424,142.53184560034424,k,0.08733879961073399,,,003,2022-11-09_14h28.54.803,mini_mfe_online,2022.2.4,60.00239989074478,
half_surp_table3.csv,OLD - 'K' Key,NEW - 'S' Key,s,"In this round, press the 'K' key when the face is OLD and the 'S' key when it is new.

To get ready, rest your right and left index fingers on the 'K' and 'S' keys, then press the 'K' when you are ready to begin.",img/neutralC/CFD-IF-650-315-N.jpg,0,,,,,,,,,0,2,2,2,0,8,8,42,,,,,,,,,,,,,,,,,,,,,,,,,,,,,,,,,,,,,,,,,,,,,,,,,,,,,,,,,,,,142.72198829986155,142.72198829986155,142.72198829986155,142.72198829986155,k,0.11292760074138641,,,003,2022-11-09_14h28.54.803,mini_mfe_online,2022.2.4,60.00239989074478,
half_surp_table3.csv,OLD - 'K' Key,NEW - 'S' Key,s,"In this round, press the 'K' key when the face is OLD and the 'S' key when it is new.

To get ready, rest your right and left index fingers on the 'K' and 'S' keys, then press the 'K' when you are ready to begin.",img/neutralC/CFD-IF-631-363-N.jpg,1,,,,,,,,,0,2,2,2,0,9,9,58,,,,,,,,,,,,,,,,,,,,,,,,,,,,,,,,,,,,,,,,,,,,,,,,,,,,,,,,,,,,142.95330290030688,142.95330290030688,142.95330290030688,142.95330290030688,k,0.08605429995805025,,,003,2022-11-09_14h28.54.803,mini_mfe_online,2022.2.4,60.00239989074478,
half_surp_table3.csv,OLD - 'K' Key,NEW - 'S' Key,s,"In this round, press the 'K' key when the face is OLD and the 'S' key when it is new.

To get ready, rest your right and left index fingers on the 'K' and 'S' keys, then press the 'K' when you are ready to begin.",img/neutralC/CFD-IM-655-234-N.jpg,0,,,,,,,,,0,2,2,2,0,10,10,22,,,,,,,,,,,,,,,,,,,,,,,,,,,,,,,,,,,,,,,,,,,,,,,,,,,,,,,,,,,,143.15009449981153,143.15009449981153,143.15009449981153,143.15009449981153,k,0.10144659969955683,,,003,2022-11-09_14h28.54.803,mini_mfe_online,2022.2.4,60.00239989074478,
half_surp_table3.csv,OLD - 'K' Key,NEW - 'S' Key,s,"In this round, press the 'K' key when the face is OLD and the 'S' key when it is new.

To get ready, rest your right and left index fingers on the 'K' and 'S' keys, then press the 'K' when you are ready to begin.",img/neutralC/CFD-BM-243-218-N.jpg,0,,,,,,,,,0,2,2,2,0,11,11,56,,,,,,,,,,,,,,,,,,,,,,,,,,,,,,,,,,,,,,,,,,,,,,,,,,,,,,,,,,,,143.35669639986008,143.35669639986008,143.35669639986008,143.35669639986008,k,0.1075772000476718,,,003,2022-11-09_14h28.54.803,mini_mfe_online,2022.2.4,60.00239989074478,
half_surp_table3.csv,OLD - 'K' Key,NEW - 'S' Key,s,"In this round, press the 'K' key when the face is OLD and the 'S' key when it is new.

To get ready, rest your right and left index fingers on the 'K' and 'S' keys, then press the 'K' when you are ready to begin.",img/neutralC/CFD-WM-255-219-N.jpg,1,,,,,,,,,0,2,2,2,0,12,12,15,,,,,,,,,,,,,,,,,,,,,,,,,,,,,,,,,,,,,,,,,,,,,,,,,,,,,,,,,,,,143.57017340045422,143.57017340045422,143.57017340045422,143.57017340045422,k,0.1075534000992775,,,003,2022-11-09_14h28.54.803,mini_mfe_online,2022.2.4,60.00239989074478,
half_surp_table3.csv,OLD - 'K' Key,NEW - 'S' Key,s,"In this round, press the 'K' key when the face is OLD and the 'S' key when it is new.

To get ready, rest your right and left index fingers on the 'K' and 'S' keys, then press the 'K' when you are ready to begin.",img/neutralC/CFD-IM-712-005-N.jpg,0,,,,,,,,,0,2,2,2,0,13,13,29,,,,,,,,,,,,,,,,,,,,,,,,,,,,,,,,,,,,,,,,,,,,,,,,,,,,,,,,,,,,143.82167739979923,143.82167739979923,143.82167739979923,143.82167739979923,k,0.06528960075229406,,,003,2022-11-09_14h28.54.803,mini_mfe_online,2022.2.4,60.00239989074478,
half_surp_table3.csv,OLD - 'K' Key,NEW - 'S' Key,s,"In this round, press the 'K' key when the face is OLD and the 'S' key when it is new.

To get ready, rest your right and left index fingers on the 'K' and 'S' keys, then press the 'K' when you are ready to begin.",img/neutralC/CFD-BM-001-014-N.jpg,0,,,,,,,,,0,2,2,2,0,14,14,44,,,,,,,,,,,,,,,,,,,,,,,,,,,,,,,,,,,,,,,,,,,,,,,,,,,,,,,,,,,,144.00772469956428,144.00772469956428,144.00772469956428,144.00772469956428,k,0.08412920031696558,,,003,2022-11-09_14h28.54.803,mini_mfe_online,2022.2.4,60.00239989074478,
half_surp_table3.csv,OLD - 'K' Key,NEW - 'S' Key,s,"In this round, press the 'K' key when the face is OLD and the 'S' key when it is new.

To get ready, rest your right and left index fingers on the 'K' and 'S' keys, then press the 'K' when you are ready to begin.",img/neutralC/CFD-LM-231-214-N.jpg,0,,,,,,,,,0,2,2,2,0,15,15,4,,,,,,,,,,,,,,,,,,,,,,,,,,,,,,,,,,,,,,,,,,,,,,,,,,,,,,,,,,,,144.21351510006934,144.21351510006934,144.21351510006934,144.21351510006934,k,0.08604910038411617,,,003,2022-11-09_14h28.54.803,mini_mfe_online,2022.2.4,60.00239989074478,
half_surp_table3.csv,OLD - 'K' Key,NEW - 'S' Key,s,"In this round, press the 'K' key when the face is OLD and the 'S' key when it is new.

To get ready, rest your right and left index fingers on the 'K' and 'S' keys, then press the 'K' when you are ready to begin.",img/neutralC/CFD-WM-039-018-N.jpg,0,,,,,,,,,0,2,2,2,0,16,16,2,,,,,,,,,,,,,,,,,,,,,,,,,,,,,,,,,,,,,,,,,,,,,,,,,,,,,,,,,,,,144.41390630044043,144.41390630044043,144.41390630044043,144.41390630044043,k,0.0754653001204133,,,003,2022-11-09_14h28.54.803,mini_mfe_online,2022.2.4,60.00239989074478,
half_surp_table3.csv,OLD - 'K' Key,NEW - 'S' Key,s,"In this round, press the 'K' key when the face is OLD and the 'S' key when it is new.

To get ready, rest your right and left index fingers on the 'K' and 'S' keys, then press the 'K' when you are ready to begin.",img/neutralC/CFD-BF-203-184-N.jpg,0,,,,,,,,,0,2,2,2,0,17,17,30,,,,,,,,,,,,,,,,,,,,,,,,,,,,,,,,,,,,,,,,,,,,,,,,,,,,,,,,,,,,144.62426340021193,144.62426340021193,144.62426340021193,144.62426340021193,k,0.02397730015218258,,,003,2022-11-09_14h28.54.803,mini_mfe_online,2022.2.4,60.00239989074478,
half_surp_table3.csv,OLD - 'K' Key,NEW - 'S' Key,s,"In this round, press the 'K' key when the face is OLD and the 'S' key when it is new.

To get ready, rest your right and left index fingers on the 'K' and 'S' keys, then press the 'K' when you are ready to begin.",img/neutralC/CFD-AF-229-160-N.jpg,0,,,,,,,,,0,2,2,2,0,18,18,28,,,,,,,,,,,,,,,,,,,,,,,,,,,,,,,,,,,,,,,,,,,,,,,,,,,,,,,,,,,,144.75984910037369,144.75984910037369,144.75984910037369,144.75984910037369,k,0.08274140022695065,,,003,2022-11-09_14h28.54.803,mini_mfe_online,2022.2.4,60.00239989074478,
half_surp_table3.csv,OLD - 'K' Key,NEW - 'S' Key,s,"In this round, press the 'K' key when the face is OLD and the 'S' key when it is new.

To get ready, rest your right and left index fingers on the 'K' and 'S' keys, then press the 'K' when you are ready to begin.",img/neutralC/CFD-BM-252-161-N.jpg,0,,,,,,,,,0,2,2,2,0,19,19,32,,,,,,,,,,,,,,,,,,,,,,,,,,,,,,,,,,,,,,,,,,,,,,,,,,,,,,,,,,,,144.97387319989502,144.97387319989502,144.97387319989502,144.97387319989502,k,0.05475130025297403,,,003,2022-11-09_14h28.54.803,mini_mfe_online,2022.2.4,60.00239989074478,
half_surp_table3.csv,OLD - 'K' Key,NEW - 'S' Key,s,"In this round, press the 'K' key when the face is OLD and the 'S' key when it is new.

To get ready, rest your right and left index fingers on the 'K' and 'S' keys, then press the 'K' when you are ready to begin.",img/neutralC/CFD-WF-012-002-N.jpg,1,,,,,,,,,0,2,2,2,0,20,20,17,,,,,,,,,,,,,,,,,,,,,,,,,,,,,,,,,,,,,,,,,,,,,,,,,,,,,,,,,,,,145.1973609002307,145.1973609002307,145.1973609002307,145.1973609002307,k,0.017958800308406353,,,003,2022-11-09_14h28.54.803,mini_mfe_online,2022.2.4,60.00239989074478,
half_surp_table3.csv,OLD - 'K' Key,NEW - 'S' Key,s,"In this round, press the 'K' key when the face is OLD and the 'S' key when it is new.

To get ready, rest your right and left index fingers on the 'K' and 'S' keys, then press the 'K' when you are ready to begin.",img/neutralC/CFD-AM-228-214-N.jpg,0,,,,,,,,,0,2,2,2,0,21,21,20,,,,,,,,,,,,,,,,,,,,,,,,,,,,,,,,,,,,,,,,,,,,,,,,,,,,,,,,,,,,145.37515399977565,145.37515399977565,145.37515399977565,145.37515399977565,k,0.04366539977490902,,,003,2022-11-09_14h28.54.803,mini_mfe_online,2022.2.4,60.00239989074478,
half_surp_table3.csv,OLD - 'K' Key,NEW - 'S' Key,s,"In this round, press the 'K' key when the face is OLD and the 'S' key when it is new.

To get ready, rest your right and left index fingers on the 'K' and 'S' keys, then press the 'K' when you are ready to begin.",img/neutralC/CFD-IM-688-322-N.jpg,0,,,,,,,,,0,2,2,2,0,22,22,48,,,,,,,,,,,,,,,,,,,,,,,,,,,,,,,,,,,,,,,,,,,,,,,,,,,,,,,,,,,,145.52605400048196,145.52605400048196,145.52605400048196,145.52605400048196,k,0.09309280011802912,,,003,2022-11-09_14h28.54.803,mini_mfe_online,2022.2.4,60.00239989074478,
half_surp_table3.csv,OLD - 'K' Key,NEW - 'S' Key,s,"In this round, press the 'K' key when the face is OLD and the 'S' key when it is new.

To get ready, rest your right and left index fingers on the 'K' and 'S' keys, then press the 'K' when you are ready to begin.",img/neutralC/CFD-BF-201-080-N.jpg,1,,,,,,,,,0,2,2,2,0,23,23,40,,,,,,,,,,,,,,,,,,,,,,,,,,,,,,,,,,,,,,,,,,,,,,,,,,,,,,,,,,,,145.7362826000899,145.7362826000899,145.7362826000899,145.7362826000899,k,0.08107739966362715,,,003,2022-11-09_14h28.54.803,mini_mfe_online,2022.2.4,60.00239989074478,
half_surp_table3.csv,OLD - 'K' Key,NEW - 'S' Key,s,"In this round, press the 'K' key when the face is OLD and the 'S' key when it is new.

To get ready, rest your right and left index fingers on the 'K' and 'S' keys, then press the 'K' when you are ready to begin.",img/neutralC/CFD-BM-253-004-N.jpg,0,,,,,,,,,0,2,2,2,0,24,24,70,,,,,,,,,,,,,,,,,,,,,,,,,,,,,,,,,,,,,,,,,,,,,,,,,,,,,,,,,,,,145.94507410004735,145.94507410004735,145.94507410004735,145.94507410004735,k,0.08352920040488243,,,003,2022-11-09_14h28.54.803,mini_mfe_online,2022.2.4,60.00239989074478,
half_surp_table3.csv,OLD - 'K' Key,NEW - 'S' Key,s,"In this round, press the 'K' key when the face is OLD and the 'S' key when it is new.

